sep=,
DeviceTag:,Xsens DOT
FirmwareVersion:,2.2.1
AppVersion:,2022.0.0
SyncStatus:,Un-synced
OutputRate:,60Hz
FilterProfile:,Dynamic
Measurement Mode:,Sensor fusion Mode - Complete(Quaternion)
StartTime: ,2023-03-23_23:28:45_563 GMT+8
© Xsens Technologies B. V. 2005-2023

PacketCounter,SampleTimeFine,Quat_W,Quat_X,Quat_Y,Quat_Z,FreeAcc_X,FreeAcc_Y,FreeAcc_Z
1,362718347,0.646809,-0.369800,-0.575722,-0.336794,-0.015633,-0.003711,0.006547
2,362735014,0.646965,-0.369959,-0.575589,-0.336546,-0.011759,0.018671,0.014486
3,362751681,0.646999,-0.370319,-0.575195,-0.336760,-0.019865,0.020975,0.017829
4,362768348,0.647155,-0.370485,-0.574889,-0.336801,-0.002516,0.013841,0.014427
5,362785015,0.647454,-0.370315,-0.574842,-0.336491,-0.004056,0.019373,0.004128
6,362801682,0.647541,-0.370474,-0.574606,-0.336551,-0.000491,-0.005997,0.022511
7,362818349,0.647732,-0.370433,-0.574539,-0.336346,0.019621,0.010153,0.019159
8,362835016,0.647616,-0.370846,-0.574220,-0.336658,0.019962,-0.000871,0.002023
9,362851683,0.647555,-0.371117,-0.574024,-0.336811,0.030937,0.003544,0.026796
10,362868350,0.647545,-0.371279,-0.573909,-0.336848,0.044818,-0.032519,0.019945
11,362885017,0.647509,-0.371510,-0.573757,-0.336922,0.040117,0.006908,0.002157
12,362901684,0.647546,-0.371619,-0.573678,-0.336862,0.025677,0.006940,0.014484
13,362918351,0.647571,-0.371732,-0.573611,-0.336805,0.013234,0.014108,0.006822
14,362935018,0.647669,-0.371715,-0.573626,-0.336608,0.033543,0.013549,-0.009232
15,362951685,0.647648,-0.371907,-0.573491,-0.336669,0.048294,0.013773,0.005561
16,362968352,0.647655,-0.372051,-0.573390,-0.336667,0.057612,0.003376,0.011843
17,362985019,0.647672,-0.372172,-0.573310,-0.336639,0.050538,-0.010880,0.000198
18,363001686,0.647733,-0.372204,-0.573284,-0.336529,0.053847,0.000779,0.009765
19,363018353,0.647733,-0.372355,-0.573183,-0.336533,0.061751,-0.001811,-0.001942
20,363035020,0.647704,-0.372556,-0.573036,-0.336617,0.051808,-0.008421,0.019436
21,363051687,0.647768,-0.372615,-0.572986,-0.336514,0.055145,0.007217,0.025724
22,363068354,0.647810,-0.372714,-0.572921,-0.336435,0.051387,0.013718,0.016378
23,363085021,0.647814,-0.372870,-0.572809,-0.336444,0.032559,0.027659,0.011115
24,363101688,0.647853,-0.372965,-0.572744,-0.336375,0.056261,0.034844,0.009137
25,363118355,0.647849,-0.373127,-0.572637,-0.336385,0.056931,0.019556,0.016871
26,363135022,0.647856,-0.373269,-0.572532,-0.336394,0.072709,0.019521,0.018230
27,363151689,0.647869,-0.373412,-0.572424,-0.336392,0.059528,0.036733,0.018815
28,363168356,0.647882,-0.373546,-0.572326,-0.336386,0.066149,0.019246,0.021163
29,363185023,0.647930,-0.373628,-0.572262,-0.336311,0.074671,0.018603,0.011585
30,363201690,0.647966,-0.373738,-0.572179,-0.336261,0.083012,0.013579,0.012468
31,363218357,0.648028,-0.373806,-0.572117,-0.336170,0.076841,0.007587,0.004745
32,363235024,0.648084,-0.373890,-0.572048,-0.336088,0.100360,0.004436,0.014502
33,363251691,0.648098,-0.374054,-0.571923,-0.336092,0.069288,0.035003,0.003737
34,363268358,0.648138,-0.374168,-0.571822,-0.336058,0.081950,0.029094,0.010728
35,363285025,0.648180,-0.374266,-0.571732,-0.336021,0.077582,0.050288,0.008152
36,363301692,0.648268,-0.374283,-0.571697,-0.335892,0.100586,0.029597,0.001568
37,363318359,0.648251,-0.374456,-0.571577,-0.335936,0.100242,0.039389,0.018071
38,363335026,0.648247,-0.374627,-0.571449,-0.335970,0.097815,0.030896,0.016885
39,363351693,0.648269,-0.374756,-0.571348,-0.335956,0.107137,0.029233,0.010294
40,363368360,0.648332,-0.374805,-0.571293,-0.335873,0.112355,0.016786,0.011873
41,363385027,0.648357,-0.374931,-0.571195,-0.335852,0.093303,0.045840,0.000319
42,363401694,0.648427,-0.374970,-0.571148,-0.335754,0.105771,0.032474,0.002636
43,363418361,0.648449,-0.375095,-0.571042,-0.335751,0.095153,0.026592,0.017904
44,363435028,0.648485,-0.375185,-0.570959,-0.335723,0.105588,0.036576,0.007225
45,363451695,0.648524,-0.375279,-0.570885,-0.335667,0.115518,0.039013,0.016200
46,363468362,0.648554,-0.375388,-0.570789,-0.335650,0.129840,0.041348,0.001494
47,363485029,0.648584,-0.375496,-0.570706,-0.335614,0.121133,0.039618,0.013762
48,363501696,0.648659,-0.375508,-0.570697,-0.335471,0.120367,0.038580,0.023380
49,363518363,0.648726,-0.375555,-0.570652,-0.335365,0.121229,0.047557,0.008301
50,363535030,0.648767,-0.375632,-0.570581,-0.335321,0.128736,0.040642,0.018006
51,363551697,0.648829,-0.375682,-0.570534,-0.335224,0.139579,0.045790,0.005007
52,363568364,0.648837,-0.375811,-0.570440,-0.335223,0.114685,0.052215,-0.002353
53,363585031,0.648887,-0.375882,-0.570371,-0.335166,0.123407,0.054923,0.006205
54,363601698,0.648917,-0.375984,-0.570291,-0.335128,0.121007,0.042746,-0.001171
55,363618365,0.648968,-0.376049,-0.570226,-0.335066,0.126032,0.047434,0.004248
56,363635032,0.648965,-0.376204,-0.570100,-0.335113,0.137042,0.039639,0.006382
57,363651699,0.648994,-0.376311,-0.570016,-0.335079,0.143018,0.031193,0.001547
58,363668366,0.649069,-0.376355,-0.569967,-0.334970,0.138338,0.044064,0.002211
59,363685033,0.649076,-0.376499,-0.569860,-0.334975,0.134522,0.051206,0.004948
60,363701700,0.649153,-0.376529,-0.569819,-0.334862,0.144532,0.060396,0.021512
61,363718367,0.649236,-0.376535,-0.569803,-0.334721,0.164305,0.040882,0.021036
62,363735034,0.649283,-0.376599,-0.569752,-0.334646,0.153608,0.054172,0.002107
63,363751701,0.649315,-0.376691,-0.569674,-0.334614,0.164799,0.072243,0.002385
64,363768368,0.649349,-0.376771,-0.569606,-0.334572,0.161031,0.051396,0.005547
65,363785035,0.649495,-0.376678,-0.569654,-0.334312,0.165126,0.055131,0.015510
66,363801702,0.649529,-0.376764,-0.569582,-0.334270,0.160639,0.056878,0.003858
67,363818369,0.649588,-0.376809,-0.569535,-0.334187,0.154277,0.061376,0.018082
68,363835036,0.649665,-0.376815,-0.569517,-0.334061,0.155961,0.059622,-0.002483
69,363851703,0.649722,-0.376863,-0.569471,-0.333973,0.169252,0.053961,0.012168
70,363868370,0.649770,-0.376931,-0.569403,-0.333919,0.167225,0.078316,0.008838
71,363885037,0.649814,-0.376997,-0.569349,-0.333853,0.174979,0.051572,0.023095
72,363901704,0.649880,-0.377026,-0.569313,-0.333752,0.156608,0.058813,0.020497
73,363918371,0.649957,-0.377045,-0.569283,-0.333632,0.171659,0.071764,0.004250
74,363935038,0.649995,-0.377122,-0.569216,-0.333584,0.169125,0.069394,0.007820
75,363951705,0.650110,-0.377078,-0.569227,-0.333391,0.173962,0.058073,-0.001819
76,363968372,0.650144,-0.377154,-0.569152,-0.333367,0.184300,0.045605,0.012677
77,363985039,0.650200,-0.377199,-0.569099,-0.333299,0.186384,0.046172,0.014728
78,364001706,0.650204,-0.377326,-0.569005,-0.333308,0.184893,0.066746,0.026795
79,364018373,0.650280,-0.377323,-0.568988,-0.333191,0.175065,0.068174,0.008759
80,364035040,0.650317,-0.377381,-0.568945,-0.333126,0.181781,0.076366,0.009907
81,364051707,0.650376,-0.377396,-0.568929,-0.333023,0.192925,0.041476,-0.003819
82,364068374,0.650369,-0.377523,-0.568838,-0.333048,0.186967,0.072911,0.019664
83,364085041,0.650397,-0.377601,-0.568773,-0.333015,0.203618,0.062355,0.012475
84,364101708,0.650463,-0.377624,-0.568740,-0.332915,0.188759,0.065802,0.015848
85,364118375,0.650543,-0.377628,-0.568728,-0.332777,0.203343,0.074642,-0.000362
86,364135042,0.650598,-0.377662,-0.568682,-0.332708,0.202703,0.066474,0.017497
87,364151709,0.650590,-0.377807,-0.568571,-0.332749,0.209956,0.059791,0.004632
88,364168376,0.650638,-0.377839,-0.568554,-0.332647,0.197850,0.076537,0.006411
89,364185043,0.650653,-0.377936,-0.568474,-0.332645,0.202546,0.059200,0.016343
90,364201710,0.650687,-0.378005,-0.568416,-0.332598,0.184444,0.096250,0.005786
91,364218377,0.650725,-0.378068,-0.568357,-0.332554,0.203464,0.070884,0.003468
92,364235044,0.650761,-0.378118,-0.568316,-0.332497,0.215223,0.077969,0.011340
93,364251711,0.650792,-0.378171,-0.568271,-0.332452,0.197075,0.075627,0.015386
94,364268378,0.650816,-0.378237,-0.568217,-0.332424,0.223015,0.044212,0.003821
95,364285045,0.650853,-0.378270,-0.568193,-0.332353,0.207808,0.063283,0.013062
96,364301712,0.650864,-0.378348,-0.568132,-0.332346,0.207505,0.088908,0.007831
97,364318379,0.650887,-0.378408,-0.568084,-0.332317,0.226544,0.086328,0.017978
98,364335046,0.650922,-0.378457,-0.568042,-0.332264,0.215707,0.085958,0.011620
99,364351713,0.650953,-0.378498,-0.568008,-0.332215,0.206022,0.094335,0.010092
100,364368380,0.651024,-0.378482,-0.568004,-0.332100,0.213749,0.095778,0.012111
101,364385047,0.651058,-0.378523,-0.567976,-0.332035,0.216792,0.106814,0.007950
102,364401714,0.651093,-0.378564,-0.567939,-0.331983,0.236928,0.080877,0.003809
103,364418381,0.651108,-0.378633,-0.567881,-0.331974,0.228847,0.074348,0.015289
104,364435048,0.651177,-0.378618,-0.567880,-0.331858,0.222746,0.084020,0.015957
105,364451715,0.651225,-0.378639,-0.567858,-0.331777,0.222340,0.102685,0.013809
106,364468382,0.651249,-0.378691,-0.567823,-0.331729,0.231271,0.093872,0.017150
107,364485049,0.651268,-0.378752,-0.567767,-0.331719,0.229931,0.099157,0.013282
108,364501716,0.651298,-0.378787,-0.567734,-0.331677,0.235456,0.088001,0.015056
109,364518383,0.651340,-0.378815,-0.567707,-0.331608,0.245659,0.078628,0.016765
110,364535050,0.651379,-0.378841,-0.567687,-0.331536,0.224225,0.098293,0.015212
111,364551717,0.651446,-0.378824,-0.567686,-0.331426,0.229997,0.099425,0.015800
112,364568384,0.651410,-0.378958,-0.567590,-0.331509,0.242804,0.097263,0.002228
113,364585051,0.651434,-0.378983,-0.567571,-0.331465,0.255219,0.087125,0.012636
114,364601718,0.651433,-0.379054,-0.567523,-0.331468,0.240062,0.106713,0.009369
115,364618385,0.651451,-0.379110,-0.567474,-0.331453,0.240792,0.105942,0.019538
116,364635052,0.651466,-0.379161,-0.567435,-0.331431,0.242650,0.082006,0.021324
117,364651719,0.651511,-0.379157,-0.567433,-0.331350,0.242309,0.095553,-0.000932
118,364668386,0.651480,-0.379273,-0.567349,-0.331422,0.244083,0.087327,0.006777
119,364685053,0.647070,-0.370038,-0.575282,-0.336782,-0.011915,0.018681,0.017072
120,364701720,0.647046,-0.370075,-0.575278,-0.336796,-0.012309,0.000926,0.012068
121,364718387,0.647035,-0.370085,-0.575280,-0.336803,-0.008513,-0.011572,0.008376
122,364735054,0.647039,-0.370096,-0.575261,-0.336816,-0.001734,0.011392,0.011541
123,364751721,0.647039,-0.370095,-0.575266,-0.336807,-0.001731,-0.018233,0.016370
124,364768388,0.647046,-0.370083,-0.575275,-0.336791,-0.016407,0.009267,0.001170
125,364785055,0.647041,-0.370084,-0.575279,-0.336794,0.000516,-0.009323,0.020347
126,364801722,0.647045,-0.370082,-0.575271,-0.336803,-0.013647,0.011814,0.022141
127,364818389,0.647037,-0.370089,-0.575272,-0.336807,0.002892,-0.017021,0.015875
128,364835056,0.647024,-0.370107,-0.575264,-0.336826,-0.005377,0.025988,0.008240
129,364851723,0.647017,-0.370117,-0.575261,-0.336834,0.001727,-0.000399,0.018564
130,364868390,0.647021,-0.370119,-0.575258,-0.336829,-0.004133,-0.008806,0.003695
131,364885057,0.647025,-0.370122,-0.575247,-0.336836,0.002482,0.003903,0.013801
132,364901724,0.647021,-0.370122,-0.575252,-0.336837,-0.002784,-0.005911,-0.000586
133,364918391,0.647012,-0.370138,-0.575246,-0.336847,-0.001986,-0.021406,0.013494
134,364935058,0.647007,-0.370142,-0.575247,-0.336849,-0.016421,0.008585,0.015889
135,364951725,0.647003,-0.370148,-0.575245,-0.336855,0.006024,0.016191,0.014908
136,364968392,0.646996,-0.370156,-0.575239,-0.336869,-0.003346,0.020757,0.020250
137,364985059,0.646985,-0.370170,-0.575232,-0.336887,-0.013488,0.005120,0.013829
138,365001726,0.646989,-0.370183,-0.575221,-0.336884,-0.010293,0.007515,0.009838
139,365018393,0.646994,-0.370178,-0.575225,-0.336875,-0.006029,0.001376,0.011264
140,365035060,0.647002,-0.370174,-0.575225,-0.336862,-0.002386,-0.003046,0.006915
141,365051727,0.647001,-0.370171,-0.575229,-0.336861,-0.003306,0.002481,0.010180
142,365068394,0.647005,-0.370161,-0.575230,-0.336862,-0.007563,0.016469,0.006701
143,365085061,0.647007,-0.370159,-0.575225,-0.336868,-0.019565,0.009062,0.009356
144,365101728,0.647008,-0.370161,-0.575219,-0.336875,0.007069,0.001299,-0.001211
145,365118395,0.647014,-0.370157,-0.575216,-0.336872,-0.006352,0.002698,0.001534
146,365135062,0.647001,-0.370167,-0.575215,-0.336888,-0.011464,-0.002007,0.009109
147,365151729,0.647000,-0.370177,-0.575202,-0.336902,0.007044,0.005727,0.004794
148,365168396,0.646997,-0.370187,-0.575192,-0.336912,0.002035,-0.003482,0.019511
149,365185063,0.646995,-0.370195,-0.575187,-0.336918,-0.008285,-0.009489,0.021311
150,365201730,0.646994,-0.370197,-0.575184,-0.336922,0.000041,-0.009197,0.026033
151,365218397,0.646991,-0.370197,-0.575182,-0.336931,0.007099,-0.000498,0.007647
152,365235064,0.646993,-0.370200,-0.575179,-0.336928,0.005288,-0.009737,0.012242
153,365251731,0.646992,-0.370204,-0.575177,-0.336931,-0.003223,-0.006082,0.014640
154,365268398,0.646987,-0.370221,-0.575161,-0.336949,-0.006017,0.014715,0.011542
155,365285065,0.646980,-0.370238,-0.575155,-0.336953,-0.006809,0.024895,0.020176
156,365301732,0.646965,-0.370243,-0.575154,-0.336979,-0.013266,0.008910,0.011230
157,365318399,0.646957,-0.370258,-0.575145,-0.336992,-0.004468,-0.011783,0.008288
158,365335066,0.646962,-0.370270,-0.575129,-0.336996,0.000829,-0.000497,0.008607
159,365351733,0.646956,-0.370285,-0.575126,-0.336997,-0.006211,0.000369,0.007628
160,365368400,0.646962,-0.370283,-0.575131,-0.336980,-0.000881,-0.009603,0.012568
161,365385067,0.646967,-0.370275,-0.575128,-0.336984,0.001787,0.020503,0.009461
162,365401734,0.646961,-0.370283,-0.575126,-0.336989,-0.017986,0.014334,0.009830
163,365418401,0.646961,-0.370282,-0.575124,-0.336995,-0.006564,0.009750,0.021639
164,365435068,0.646959,-0.370280,-0.575121,-0.337006,-0.003741,-0.007430,0.009858
165,365451735,0.646967,-0.370271,-0.575122,-0.336999,0.013277,0.002177,0.022223
166,365468402,0.646958,-0.370284,-0.575120,-0.337004,0.000278,0.002888,0.007138
167,365485069,0.646968,-0.370288,-0.575107,-0.337004,0.000796,-0.002220,0.015398
168,365501736,0.646970,-0.370289,-0.575103,-0.337006,-0.006344,0.003234,0.003866
169,365518403,0.646968,-0.370298,-0.575102,-0.337000,0.005630,0.003796,0.022346
170,365535070,0.646967,-0.370305,-0.575098,-0.337002,-0.006947,-0.001630,0.023476
171,365551737,0.646965,-0.370302,-0.575103,-0.337000,0.002823,0.015558,0.019175
172,365568404,0.646973,-0.370304,-0.575097,-0.336993,0.008483,-0.013628,0.002119
173,365585071,0.646964,-0.370315,-0.575101,-0.336991,-0.009388,-0.002670,0.012519
174,365601738,0.646966,-0.370316,-0.575096,-0.336996,-0.002936,0.018298,0.020967
175,365618405,0.646966,-0.370323,-0.575094,-0.336992,-0.006825,-0.003356,0.018188
176,365635072,0.646957,-0.370342,-0.575090,-0.336994,-0.000255,-0.000377,0.017732
177,365651739,0.646952,-0.370356,-0.575085,-0.336998,-0.003464,0.006008,0.007298
178,365668406,0.646948,-0.370358,-0.575090,-0.336994,-0.001744,0.015384,0.011312
179,365685073,0.646948,-0.370372,-0.575078,-0.336999,0.001520,-0.013168,0.010594
180,365701740,0.646946,-0.370376,-0.575076,-0.337001,-0.009216,0.032227,0.007001
181,365718407,0.646954,-0.370360,-0.575070,-0.337014,-0.012589,0.003123,0.017945
182,365735074,0.646946,-0.370367,-0.575071,-0.337020,-0.007531,0.016503,0.022693
183,365751741,0.646948,-0.370369,-0.575076,-0.337006,0.010355,-0.006706,0.029112
184,365768408,0.646935,-0.370383,-0.575070,-0.337025,-0.009332,0.022423,0.018230
185,365785075,0.646928,-0.370377,-0.575078,-0.337032,0.004259,0.009141,0.016398
186,365801742,0.646913,-0.370408,-0.575059,-0.337059,-0.019101,0.010082,0.012271
187,365818409,0.646913,-0.370410,-0.575056,-0.337063,0.008847,-0.009795,0.009676
188,365835076,0.646921,-0.370399,-0.575054,-0.337063,0.004309,-0.013355,0.006977
189,365851743,0.646918,-0.370399,-0.575058,-0.337060,-0.000472,0.017897,0.008140
190,365868410,0.646910,-0.370401,-0.575063,-0.337067,-0.012103,0.015275,0.004115
191,365885077,0.646904,-0.370400,-0.575062,-0.337079,0.005968,0.001578,0.007301
192,365901744,0.646903,-0.370399,-0.575063,-0.337083,0.011044,-0.002601,0.022159
193,365918411,0.646906,-0.370390,-0.575063,-0.337086,0.006892,-0.019348,0.015617
194,365935078,0.646899,-0.370409,-0.575056,-0.337090,-0.003440,0.012698,0.024674
195,365951745,0.646895,-0.370403,-0.575060,-0.337098,-0.012601,0.013678,0.012423
196,365968412,0.646900,-0.370394,-0.575066,-0.337087,0.001920,0.002153,0.009134
197,365985079,0.646895,-0.370399,-0.575065,-0.337093,-0.003297,0.002283,0.003874
198,366001746,0.646903,-0.370387,-0.575062,-0.337098,0.000574,0.004540,0.002695
199,366018413,0.646899,-0.370389,-0.575055,-0.337113,0.008757,0.005582,0.013575
200,366035080,0.646893,-0.370402,-0.575038,-0.337139,-0.002173,0.008447,0.002830
201,366051747,0.646901,-0.370401,-0.575020,-0.337155,-0.007041,0.007823,0.000911
202,366068414,0.646908,-0.370402,-0.575010,-0.337158,0.004656,0.001081,0.014570
203,366085081,0.646905,-0.370395,-0.575013,-0.337167,0.010269,-0.022094,0.005318
204,366101748,0.646902,-0.370397,-0.575016,-0.337165,-0.006226,-0.009674,0.011851
205,366118415,0.646887,-0.370405,-0.575021,-0.337178,-0.000554,0.009510,-0.002478
206,366135082,0.646888,-0.370404,-0.575014,-0.337187,-0.013687,0.006614,0.008501
207,366151749,0.646890,-0.370399,-0.575010,-0.337196,-0.007452,0.013190,0.021486
208,366168416,0.646888,-0.370399,-0.575014,-0.337193,0.006480,0.005299,0.016733
209,366185083,0.646890,-0.370392,-0.575008,-0.337208,-0.012573,-0.000812,0.010960
210,366201750,0.646886,-0.370390,-0.575019,-0.337200,-0.003707,0.014512,0.017351
211,366218417,0.646889,-0.370392,-0.575016,-0.337196,-0.009164,0.004301,0.010927
212,366235084,0.646887,-0.370385,-0.575018,-0.337203,-0.001011,0.003531,0.013028
213,366251751,0.646878,-0.370405,-0.575011,-0.337212,-0.002186,0.008666,0.015088
214,366268418,0.646872,-0.370409,-0.575017,-0.337209,-0.001432,-0.017437,0.000655
215,366285085,0.646875,-0.370411,-0.575009,-0.337214,-0.005795,-0.004774,0.011291
216,366301752,0.646878,-0.370417,-0.575004,-0.337210,-0.001580,-0.010960,0.010758
217,366318419,0.646876,-0.370427,-0.574997,-0.337214,-0.011856,-0.004892,0.017511
218,366335086,0.646863,-0.370439,-0.575001,-0.337220,-0.005039,-0.008570,0.026188
219,366351753,0.646861,-0.370447,-0.574991,-0.337231,0.002844,-0.017549,0.010736
220,366368420,0.646858,-0.370447,-0.574986,-0.337246,-0.001504,-0.008249,0.002158
221,366385087,0.646850,-0.370438,-0.575000,-0.337248,0.007721,-0.001989,0.023641
222,366401754,0.646850,-0.370444,-0.574992,-0.337255,0.005317,-0.005952,0.008570
223,366418421,0.646843,-0.370462,-0.574993,-0.337246,0.005722,-0.004923,0.004324
224,366435088,0.646841,-0.370474,-0.574995,-0.337234,-0.018048,0.009622,0.010731
225,366451755,0.646830,-0.370492,-0.574987,-0.337248,0.004023,-0.011637,0.011596
226,366468422,0.646844,-0.370481,-0.574990,-0.337229,0.011023,-0.010662,0.013175
227,366485089,0.646847,-0.370493,-0.574976,-0.337234,-0.002696,0.016123,0.020915
228,366501756,0.646848,-0.370489,-0.574973,-0.337242,0.000156,-0.016816,0.017587
229,366518423,0.646846,-0.370491,-0.574970,-0.337248,0.008660,0.002424,0.011787
230,366535090,0.646840,-0.370490,-0.574975,-0.337251,-0.016970,-0.001091,0.013585
231,366551757,0.646840,-0.370491,-0.574971,-0.337257,-0.006192,0.001155,0.019001
232,366568424,0.646842,-0.370493,-0.574968,-0.337255,-0.002283,0.009180,0.025114
233,366585091,0.646838,-0.370497,-0.574972,-0.337254,-0.007872,0.008037,0.015042
234,366601758,0.646839,-0.370502,-0.574960,-0.337266,-0.008062,0.003285,0.018266
235,366618425,0.646833,-0.370510,-0.574959,-0.337270,0.003525,-0.000976,0.015471
236,366635092,0.646826,-0.370523,-0.574956,-0.337274,-0.002333,0.002881,0.007878
237,366651759,0.646827,-0.370517,-0.574956,-0.337280,-0.000078,-0.007746,0.027116
238,366668426,0.646815,-0.370524,-0.574957,-0.337293,-0.006855,-0.010407,0.005515
239,366685093,0.646836,-0.370487,-0.574958,-0.337293,-0.016144,0.025031,0.012889
240,366701760,0.646832,-0.370488,-0.574961,-0.337293,0.000161,0.003126,0.001541
241,366718427,0.646818,-0.370498,-0.574961,-0.337309,0.008521,-0.003950,0.009264
242,366735094,0.646819,-0.370506,-0.574960,-0.337300,0.000801,-0.002371,0.003416
243,366751761,0.646816,-0.370511,-0.574953,-0.337313,0.001480,0.011277,0.013812
244,366768428,0.646824,-0.370508,-0.574952,-0.337302,0.010604,0.003917,0.027893
245,366785095,0.646827,-0.370498,-0.574950,-0.337311,-0.019342,0.012187,0.025159
246,366801762,0.646826,-0.370505,-0.574948,-0.337308,0.011159,0.000883,0.007151
247,366818429,0.646821,-0.370503,-0.574956,-0.337306,-0.003014,-0.003089,0.003899
248,366835096,0.646828,-0.370505,-0.574952,-0.337298,0.015082,0.009037,0.031968
249,366851763,0.646827,-0.370511,-0.574944,-0.337307,0.001879,0.007514,0.018725
250,366868430,0.646823,-0.370517,-0.574940,-0.337313,-0.010985,0.017270,0.005876
251,366885097,0.646823,-0.370519,-0.574940,-0.337312,0.006430,-0.005147,0.010337
252,366901764,0.646811,-0.370522,-0.574951,-0.337314,-0.000831,-0.010535,0.010899
253,366918431,0.646806,-0.370530,-0.574940,-0.337334,0.000299,0.001492,0.020844
254,366935098,0.646805,-0.370536,-0.574931,-0.337343,-0.007577,-0.006779,0.004669
255,366951765,0.646805,-0.370540,-0.574926,-0.337348,0.014049,0.005060,0.017814
256,366968432,0.646803,-0.370540,-0.574923,-0.337358,-0.006926,0.001057,0.013880
257,366985099,0.646803,-0.370546,-0.574918,-0.337359,0.001912,-0.002266,0.004614
258,367001766,0.646796,-0.370563,-0.574905,-0.337374,-0.001997,-0.000130,0.017876
259,367018433,0.646796,-0.370556,-0.574904,-0.337384,-0.008895,0.008617,0.009241
260,367035100,0.646793,-0.370567,-0.574901,-0.337385,-0.001673,0.001337,0.014368
261,367051767,0.646784,-0.370582,-0.574894,-0.337397,0.003428,-0.010488,0.016980
262,367068434,0.646781,-0.370583,-0.574903,-0.337386,0.002283,0.003764,0.010559
263,367085101,0.646787,-0.370574,-0.574910,-0.337373,-0.009110,-0.009742,0.020937
264,367101768,0.646781,-0.370581,-0.574913,-0.337372,-0.022617,0.018219,0.012273
265,367118435,0.646781,-0.370594,-0.574902,-0.337376,-0.016160,-0.001712,0.013473
266,367135102,0.646777,-0.370593,-0.574907,-0.337374,-0.005347,0.014783,0.013656
267,367151769,0.646773,-0.370605,-0.574903,-0.337376,-0.001537,0.003188,0.012453
268,367168436,0.646775,-0.370602,-0.574907,-0.337369,0.003556,0.007127,0.014216
269,367185103,0.646781,-0.370592,-0.574907,-0.337367,0.004186,-0.014615,0.013039
270,367201770,0.646778,-0.370594,-0.574910,-0.337367,-0.006659,0.003696,0.011707
271,367218437,0.646778,-0.370591,-0.574915,-0.337362,-0.010624,0.024368,0.001411
272,367235104,0.646783,-0.370581,-0.574911,-0.337370,-0.012700,-0.007040,0.014291
273,367251771,0.646783,-0.370579,-0.574922,-0.337355,-0.008777,0.007643,0.021643
274,367268438,0.646782,-0.370576,-0.574924,-0.337358,-0.009666,0.003324,0.026913
275,367285105,0.646779,-0.370580,-0.574931,-0.337345,-0.014257,-0.004435,0.020898
276,367301772,0.646781,-0.370583,-0.574923,-0.337350,-0.012894,0.000941,0.017322
277,367318439,0.646774,-0.370590,-0.574925,-0.337353,-0.010958,0.016912,0.007556
278,367335106,0.646777,-0.370582,-0.574926,-0.337355,0.000922,0.021238,0.018106
279,367351773,0.646775,-0.370579,-0.574927,-0.337361,-0.004828,0.010096,0.019124
280,367368440,0.646777,-0.370582,-0.574925,-0.337357,-0.008148,0.011555,0.025397
281,367385107,0.646775,-0.370594,-0.574922,-0.337355,-0.006469,-0.000388,0.016705
282,367401774,0.646778,-0.370595,-0.574918,-0.337353,0.022439,0.010434,0.006192
283,367418441,0.646783,-0.370592,-0.574908,-0.337364,-0.002231,0.002721,0.010222
284,367435108,0.646798,-0.370576,-0.574907,-0.337355,-0.010545,-0.006974,0.005876
285,367451775,0.646806,-0.370569,-0.574911,-0.337339,0.005151,0.013847,0.007805
286,367468442,0.646802,-0.370570,-0.574914,-0.337339,0.004284,0.002890,0.011649
287,367485109,0.646804,-0.370568,-0.574912,-0.337344,0.006798,-0.006460,0.003762
288,367501776,0.646808,-0.370561,-0.574911,-0.337345,-0.007496,-0.004335,0.014323
289,367518443,0.646813,-0.370560,-0.574904,-0.337348,-0.011806,-0.005926,0.010939
290,367535110,0.646821,-0.370546,-0.574910,-0.337338,-0.013884,-0.005584,-0.001570
291,367551777,0.646826,-0.370548,-0.574905,-0.337334,0.005875,-0.004712,-0.000093
292,367568444,0.646834,-0.370535,-0.574911,-0.337323,0.003945,0.002205,0.006114
293,367585111,0.646839,-0.370538,-0.574909,-0.337313,0.007495,-0.008551,0.014929
294,367601778,0.646839,-0.370529,-0.574914,-0.337316,-0.011166,0.007880,0.006109
295,367618445,0.646837,-0.370537,-0.574905,-0.337326,0.004015,0.021435,0.029797
296,367635112,0.646835,-0.370534,-0.574907,-0.337328,-0.007668,-0.012317,0.025578
297,367651779,0.646832,-0.370538,-0.574894,-0.337354,-0.000126,-0.002734,0.017845
298,367668446,0.646825,-0.370537,-0.574901,-0.337355,-0.004513,0.007875,0.016804
299,367685113,0.646817,-0.370539,-0.574903,-0.337365,-0.013723,0.011925,0.004726
300,367701780,0.646814,-0.370530,-0.574914,-0.337361,0.003344,-0.020949,0.016657
301,367718447,0.646798,-0.370545,-0.574922,-0.337362,0.008117,-0.002022,0.007859
302,367735114,0.646793,-0.370549,-0.574924,-0.337365,0.002018,-0.000886,0.007298
303,367751781,0.646798,-0.370548,-0.574923,-0.337358,0.006794,-0.000783,0.009165
304,367768448,0.646802,-0.370551,-0.574915,-0.337360,-0.006002,0.005901,0.006512
305,367785115,0.646798,-0.370554,-0.574908,-0.337377,0.008998,0.004838,0.022883
306,367801782,0.646783,-0.370561,-0.574918,-0.337382,-0.006718,0.007153,0.010650
307,367818449,0.646784,-0.370571,-0.574907,-0.337387,0.007787,-0.012255,0.014981
308,367835116,0.646774,-0.370574,-0.574912,-0.337395,0.010335,0.001968,0.018874
309,367851783,0.646776,-0.370575,-0.574912,-0.337389,-0.004888,-0.003501,0.007338
310,367868450,0.648543,-0.368525,-0.575633,-0.335005,1.025002,0.675841,0.213885
311,367885117,0.649592,-0.368949,-0.575648,-0.332470,2.731869,0.624170,0.031871
312,367901784,0.645206,-0.377072,-0.569804,-0.341832,-4.663574,5.044116,-1.605923
313,367918451,0.644039,-0.375535,-0.575893,-0.335461,-0.391266,-1.909494,1.044275
314,367935118,0.644569,-0.373649,-0.577716,-0.333410,0.444329,-1.843436,0.696458
315,367951785,0.646616,-0.370387,-0.578219,-0.332209,0.400225,-1.091859,0.086108
316,367968452,0.648760,-0.368411,-0.577941,-0.330708,1.594776,-1.105266,-0.285975
317,367985119,0.651610,-0.367206,-0.575351,-0.330963,2.006946,-1.448753,1.833350
318,368001786,0.651621,-0.372842,-0.569561,-0.334632,0.674285,2.400412,1.433060
319,368018453,0.652151,-0.376182,-0.564878,-0.337784,-3.489290,0.359563,3.875503
320,368035120,0.653300,-0.374586,-0.565140,-0.336900,-0.487388,-1.526419,3.637527
321,368051787,0.655024,-0.373457,-0.563941,-0.336815,1.166454,-0.915385,2.914768
322,368068454,0.657268,-0.372898,-0.560118,-0.339432,0.046592,-1.280802,3.025150
323,368085121,0.660916,-0.369390,-0.556843,-0.341567,-0.168172,-1.271981,3.112943
324,368101788,0.665097,-0.365193,-0.553110,-0.344020,0.153053,-0.987442,3.176676
325,368118455,0.667775,-0.363091,-0.548106,-0.349029,0.377788,-0.362270,2.848371
326,368135122,0.668697,-0.363045,-0.542169,-0.356504,-0.305880,-0.394355,2.707531
327,368151789,0.670095,-0.360612,-0.538267,-0.362217,-0.400205,-1.452859,3.006856
328,368168456,0.672162,-0.356245,-0.535033,-0.367461,0.165603,-1.131151,3.050986
329,368185123,0.675057,-0.349871,-0.531689,-0.373089,0.096693,-1.556781,2.938638
330,368201790,0.678288,-0.342185,-0.528236,-0.379213,-0.014963,-1.640900,2.943208
331,368218457,0.681761,-0.332934,-0.524966,-0.385705,0.065119,-1.458074,2.527878
332,368235124,0.685525,-0.322723,-0.521291,-0.392635,0.556377,-1.315696,1.473433
333,368251791,0.688261,-0.314762,-0.515911,-0.401320,0.227362,-1.441680,0.688434
334,368268458,0.690846,-0.306724,-0.510586,-0.409823,-0.483365,-0.990311,0.314468
335,368285125,0.694068,-0.297926,-0.506016,-0.416483,0.040373,-0.890715,-0.296839
336,368301792,0.696437,-0.291725,-0.500863,-0.423094,0.216395,-0.824083,-0.617096
337,368318459,0.698571,-0.286446,-0.496406,-0.428402,0.026494,-0.801148,-0.927005
338,368335126,0.700056,-0.282361,-0.492326,-0.433369,-0.104066,-0.868502,-1.342072
339,368351793,0.700334,-0.279402,-0.488331,-0.439317,-0.452085,-0.647860,-1.737791
340,368368460,0.700853,-0.275784,-0.485136,-0.444287,0.122922,-0.457993,-2.162034
341,368385127,0.702110,-0.272477,-0.482598,-0.447098,0.434040,-0.445504,-2.754853
342,368401794,0.702966,-0.270649,-0.480078,-0.449571,0.169838,-0.014600,-2.706712
343,368418461,0.702024,-0.270886,-0.476865,-0.454294,-0.913143,-0.033017,-2.647156
344,368435128,0.699908,-0.270322,-0.475307,-0.459498,-0.906328,0.040226,-2.681756
345,368451795,0.696743,-0.270537,-0.474741,-0.464737,-0.059754,0.650191,-2.693752
346,368468462,0.693033,-0.272300,-0.474120,-0.469860,0.255116,0.599609,-2.729376
347,368485129,0.688995,-0.275336,-0.472883,-0.475245,0.038667,0.401687,-2.590701
348,368501796,0.685404,-0.278434,-0.472129,-0.479364,0.668385,0.493406,-2.414618
349,368518463,0.681611,-0.284623,-0.469695,-0.483512,0.865081,0.983871,-2.160329
350,368535130,0.677806,-0.292759,-0.466311,-0.487263,0.315353,0.688576,-1.999362
351,368551797,0.673937,-0.301797,-0.462770,-0.490480,0.213937,0.800945,-1.814280
352,368568464,0.669171,-0.312875,-0.458470,-0.494090,-0.163569,1.056748,-1.833571
353,368585131,0.663422,-0.324598,-0.454824,-0.497637,-0.774611,1.120064,-1.801857
354,368601798,0.657204,-0.335057,-0.453092,-0.500526,-0.885636,1.254320,-1.761378
355,368618465,0.650111,-0.345303,-0.452674,-0.503197,-0.294715,1.483203,-1.846020
356,368635132,0.641067,-0.357956,-0.451402,-0.507087,-0.137260,2.159056,-1.360305
357,368651799,0.633568,-0.367032,-0.451548,-0.509886,-0.074484,0.718100,-0.917560
358,368668466,0.627577,-0.373188,-0.450753,-0.513517,0.792279,0.319739,-0.070152
359,368685133,0.622725,-0.378375,-0.446274,-0.519504,0.016815,-1.039070,0.196277
360,368701800,0.620997,-0.379402,-0.441876,-0.524560,0.142949,0.270564,0.350062
361,368718467,0.619607,-0.380339,-0.435414,-0.530889,-1.572346,-0.288370,-0.240853
362,368735134,0.622474,-0.374553,-0.435202,-0.531823,0.424529,2.099485,-0.134384
363,368751801,0.621136,-0.376755,-0.430263,-0.535835,-0.104252,1.371301,-0.264424
364,368768468,0.620635,-0.376060,-0.428337,-0.538442,-0.875637,1.391021,-0.583257
365,368785135,0.617726,-0.378040,-0.425824,-0.542379,-0.079856,1.947125,-0.512143
366,368801802,0.614121,-0.380683,-0.424990,-0.545270,-0.231230,1.040722,-0.451119
367,368818469,0.610139,-0.383749,-0.424599,-0.547890,0.151625,0.547045,0.094850
368,368835136,0.606460,-0.387032,-0.423288,-0.550672,0.107843,0.305376,0.359006
369,368851803,0.605143,-0.388126,-0.422633,-0.551852,0.064777,-0.147986,0.347758
370,368868470,0.605359,-0.388213,-0.421500,-0.552421,-0.018727,-0.098475,0.299215
371,368885137,0.606229,-0.387541,-0.420026,-0.553061,-0.352048,-0.103830,0.143452
372,368901804,0.606998,-0.386659,-0.418808,-0.553758,0.026856,0.378192,0.006979
373,368918471,0.606392,-0.387470,-0.417287,-0.555002,0.095098,0.686999,-0.204335
374,368935138,0.604977,-0.388961,-0.416686,-0.555954,-0.095437,0.337270,-0.144704
375,368951805,0.602902,-0.391054,-0.416363,-0.556981,0.042439,0.159137,0.088674
376,368968472,0.600936,-0.393346,-0.416062,-0.557717,0.055361,-0.228773,0.212297
377,368985139,0.600171,-0.394660,-0.415966,-0.557683,0.138068,-0.574241,0.481329
378,369001806,0.601064,-0.394549,-0.415767,-0.556948,0.203726,-0.836031,0.541790
379,369018473,0.602883,-0.393423,-0.414858,-0.556456,0.128712,-0.559803,0.304974
380,369035140,0.604355,-0.392792,-0.413231,-0.556517,0.007972,0.154920,-0.007293
381,369051807,0.605574,-0.391993,-0.412586,-0.556233,-0.068824,0.210028,-0.219960
382,369068474,0.606719,-0.391281,-0.413128,-0.555083,0.433840,0.739873,-0.307720
383,369085141,0.607221,-0.391703,-0.413722,-0.553792,0.582694,0.657249,-0.344532
384,369101808,0.607658,-0.392376,-0.414602,-0.552176,0.646365,0.467723,-0.422624
385,369118475,0.606879,-0.395005,-0.413896,-0.551688,-0.079272,0.082922,-0.147580
386,369135142,0.607165,-0.395685,-0.414518,-0.550417,0.168879,-0.139445,-0.213532
387,369151809,0.605388,-0.399372,-0.412454,-0.551262,-0.595907,0.095718,0.108457
388,369168476,0.605548,-0.399657,-0.413328,-0.550223,-0.050654,0.402698,-0.355146
389,369185143,0.604408,-0.402417,-0.412520,-0.550071,0.018582,0.219467,0.085693
390,369201810,0.603991,-0.404021,-0.412875,-0.549087,-0.529984,-0.220373,-0.198996
391,369218477,0.603750,-0.405748,-0.413201,-0.547832,0.428000,-0.136423,0.008667
392,369235144,0.602205,-0.409624,-0.411582,-0.547866,0.234892,0.186036,0.104526
393,369251811,0.601520,-0.411288,-0.411835,-0.547181,-0.473899,-0.523791,0.070204
394,369268478,0.600854,-0.412992,-0.411739,-0.546702,0.421078,0.271790,0.172740
395,369285145,0.599626,-0.415089,-0.410791,-0.547175,-0.354017,-0.369949,0.217039
396,369301812,0.599528,-0.415229,-0.410909,-0.547087,0.185851,0.127717,0.294603
397,369318479,0.598354,-0.416790,-0.409202,-0.548464,-0.201892,0.341558,0.077087
398,369335146,0.597729,-0.417284,-0.408972,-0.548941,-0.318113,0.366899,-0.049927
399,369351813,0.596955,-0.418203,-0.408848,-0.549176,-0.164792,0.481054,-0.022820
400,369368480,0.597318,-0.418310,-0.409978,-0.547855,0.356624,0.596560,-0.187256
401,369385147,0.595443,-0.422006,-0.408718,-0.548004,-0.684554,0.041915,0.051661
402,369401814,0.596337,-0.422083,-0.411321,-0.545017,0.790028,0.400898,-0.055870
403,369418481,0.594487,-0.426282,-0.410058,-0.544721,-0.443684,-0.119003,0.258624
404,369435148,0.595721,-0.425374,-0.413146,-0.541742,-0.042423,-0.227991,0.220846
405,369451815,0.595801,-0.425837,-0.413737,-0.540838,0.584611,0.016946,0.100416
406,369468482,0.596219,-0.425802,-0.414808,-0.539583,0.493558,0.018020,-0.145295
407,369485149,0.595821,-0.426744,-0.415091,-0.539061,0.930020,0.220759,-0.139218
408,369501816,0.594786,-0.428497,-0.414801,-0.539037,0.644814,0.101442,-0.156709
409,369518483,0.594286,-0.429664,-0.414992,-0.538512,1.454486,0.669835,-0.452579
410,369535150,0.591877,-0.434075,-0.413034,-0.539133,0.529969,0.240472,-0.474272
411,369551817,0.590790,-0.437802,-0.412883,-0.537424,1.187040,0.614880,-0.341790
412,369568484,0.589593,-0.446622,-0.411020,-0.532891,0.422851,-0.092419,-0.104223
413,369585151,0.591772,-0.451458,-0.412323,-0.525340,0.460889,0.226176,0.078886
414,369601818,0.593479,-0.455799,-0.413060,-0.519049,0.714372,-0.355491,0.320821
415,369618485,0.595085,-0.459167,-0.413669,-0.513729,1.677143,-0.062832,0.140414
416,369635152,0.597353,-0.460699,-0.414304,-0.509194,2.497357,-0.319665,-0.031371
417,369651819,0.596481,-0.464670,-0.412808,-0.507821,2.699522,0.575252,-0.014310
418,369668486,0.588286,-0.473949,-0.409253,-0.511667,1.036998,-0.389839,0.309494
419,369685153,0.579887,-0.480077,-0.407612,-0.516828,0.561214,-1.163585,0.599414
420,369701820,0.572497,-0.484605,-0.405314,-0.522615,0.702391,-0.503518,0.367468
421,369718487,0.564819,-0.489870,-0.401302,-0.529116,0.623133,0.643395,0.111950
422,369735154,0.556646,-0.496257,-0.396641,-0.535304,-0.889126,1.076260,-0.330088
423,369751821,0.546860,-0.504217,-0.392820,-0.540743,-3.519371,1.144198,0.168322
424,369768488,0.534484,-0.511137,-0.391531,-0.547512,-6.783810,0.377158,1.015741
425,369785155,0.520882,-0.514794,-0.394542,-0.554982,-7.821340,1.301040,1.014692
426,369801822,0.505603,-0.516857,-0.400159,-0.563115,-8.927826,2.115766,0.710959
427,369818489,0.491554,-0.516679,-0.410812,-0.568024,-9.549005,2.237330,0.322881
428,369835156,0.480313,-0.514622,-0.426032,-0.568296,-9.726166,1.778823,0.408163
429,369851823,0.475321,-0.515331,-0.447085,-0.555535,-9.881067,-0.589274,0.822685
430,369868490,0.477696,-0.509327,-0.473385,-0.536935,-6.701758,-1.243063,1.369221
431,369885157,0.485686,-0.498115,-0.499262,-0.516457,-4.578648,-2.179633,1.415133
432,369901824,0.498574,-0.483417,-0.523124,-0.494038,-0.553178,-1.806296,0.847600
433,369918491,0.514385,-0.467889,-0.542367,-0.471514,1.708949,-0.970209,-0.565271
434,369935158,0.532205,-0.450995,-0.559934,-0.447030,2.950907,-0.512309,-2.177248
435,369951825,0.550239,-0.434231,-0.577028,-0.419189,6.839146,0.700763,-3.413153
436,369968492,0.561733,-0.425823,-0.588285,-0.396298,9.808208,1.437150,-3.188085
437,369985159,0.568362,-0.421957,-0.595706,-0.379541,11.850683,0.277000,-1.804828
438,370001826,0.574892,-0.418474,-0.599109,-0.368031,13.141555,-1.407570,-0.465802
439,370018493,0.580080,-0.418276,-0.598414,-0.361183,14.381186,-1.329681,-0.066118
440,370035160,0.584059,-0.420788,-0.594790,-0.357824,14.929090,-0.977560,-0.724355
441,370051827,0.584782,-0.427852,-0.588434,-0.358774,16.020916,-0.540922,-0.494463
442,370068494,0.580508,-0.441860,-0.576287,-0.368327,14.984471,-2.558618,1.117283
443,370085161,0.576735,-0.457618,-0.557775,-0.383210,12.959945,-4.866853,2.518644
444,370101828,0.573940,-0.475854,-0.529261,-0.405018,9.575611,-6.361288,2.836882
445,370118495,0.576288,-0.491451,-0.493359,-0.427743,5.393905,-6.079235,1.202420
446,370135162,0.572640,-0.511860,-0.447977,-0.457603,-2.451968,-2.817383,-2.057747
447,370151829,0.560866,-0.529612,-0.408042,-0.488306,-10.688625,1.794018,-3.350719
448,370168496,0.536148,-0.547339,-0.376465,-0.520807,-16.062510,6.347015,-2.550955
449,370185163,0.503654,-0.561121,-0.357976,-0.550753,-19.534256,8.298104,-0.651907
450,370201830,0.473999,-0.568042,-0.354977,-0.571528,-18.514151,6.259654,2.214418
451,370218497,0.452286,-0.570574,-0.354919,-0.586443,-17.124084,4.111754,5.288198
452,370235164,0.447379,-0.566885,-0.357226,-0.592354,-17.013546,4.291451,4.495556
453,370251831,0.455140,-0.557432,-0.368831,-0.588287,-16.273148,5.416339,0.205464
454,370268498,0.469155,-0.545423,-0.389107,-0.575329,-13.913625,5.878067,-1.644364
455,370285165,0.486026,-0.530105,-0.415231,-0.557092,-10.557233,2.228178,-1.995457
456,370301832,0.501138,-0.513332,-0.443554,-0.537226,-6.840839,0.310198,-2.611314
457,370318499,0.516110,-0.493452,-0.474973,-0.514330,-3.119370,-2.131835,-2.532788
458,370335166,0.530905,-0.472464,-0.509158,-0.485465,2.518406,-3.148066,-2.563340
459,370351833,0.542919,-0.454016,-0.540818,-0.454560,6.987486,-4.048326,-1.835120
460,370368500,0.553925,-0.437308,-0.568369,-0.422949,11.630428,-4.730314,-1.208758
461,370385167,0.564507,-0.425899,-0.588243,-0.392315,18.222822,-2.693579,-0.531460
462,370401834,0.573806,-0.423616,-0.597400,-0.366619,20.733587,-3.425900,1.669744
463,370418501,0.580895,-0.425948,-0.598282,-0.350982,21.101511,-4.364131,2.839684
464,370435168,0.585936,-0.431073,-0.593605,-0.344222,20.825195,-2.646738,3.141391
465,370451835,0.588906,-0.441163,-0.581143,-0.347616,20.165609,-4.886306,3.984635
466,370468502,0.589349,-0.456254,-0.559964,-0.361857,16.776291,-5.510019,3.564726
467,370485169,0.591287,-0.471165,-0.532423,-0.380668,13.344280,-7.415061,3.149508
468,370501836,0.586839,-0.494398,-0.493036,-0.410007,5.777967,-4.980584,0.487563
469,370518503,0.576806,-0.516244,-0.452268,-0.442991,-4.115909,-4.605677,-1.236988
470,370535170,0.558363,-0.535702,-0.415772,-0.477899,-9.537169,0.504522,-2.308073
471,370551837,0.529855,-0.553782,-0.383962,-0.514930,-14.791855,3.616122,-1.779884
472,370568504,0.499322,-0.565866,-0.360474,-0.548208,-16.627132,6.986447,-1.672660
473,370585171,0.468722,-0.576474,-0.339111,-0.577046,-18.785555,9.700452,-0.115762
474,370601838,0.444206,-0.582861,-0.325632,-0.597425,-22.499832,13.626701,-1.011136
475,370618505,0.438438,-0.579592,-0.338789,-0.597552,-21.477850,12.297448,-0.839428
476,370635172,0.437740,-0.574380,-0.358196,-0.591750,-20.077780,7.663291,-0.068861
477,370651839,0.447041,-0.559908,-0.386833,-0.580533,-13.581865,6.258440,-2.324203
478,370668506,0.453428,-0.546005,-0.416920,-0.567855,-9.332459,2.714666,-3.049327
479,370685173,0.462696,-0.530080,-0.448252,-0.551361,-5.884082,-1.355560,-1.773622
480,370701840,0.476061,-0.512144,-0.479025,-0.530669,-1.743182,-3.809848,-1.067573
481,370718507,0.491630,-0.493673,-0.507681,-0.506801,3.007900,-5.755112,0.172149
482,370735174,0.508444,-0.473814,-0.537227,-0.477883,8.077142,-6.626867,0.333050
483,370751841,0.525385,-0.454620,-0.565204,-0.444788,15.251762,-5.478361,0.192109
484,370768508,0.536609,-0.446985,-0.582481,-0.415899,19.433615,-3.784279,-0.416730
485,370785175,0.545287,-0.447686,-0.589916,-0.392733,19.850058,-6.167689,2.616393
486,370801842,0.558766,-0.444219,-0.593259,-0.372148,22.649620,-5.053110,4.090832
487,370818509,0.564002,-0.451277,-0.582318,-0.373036,21.872599,-4.186095,3.666657
488,370835176,0.568281,-0.462966,-0.561706,-0.383674,19.267647,-7.567064,2.667194
489,370851843,0.571468,-0.482469,-0.530712,-0.398739,15.997501,-6.412971,2.346404
490,370868510,0.574397,-0.503095,-0.491569,-0.418717,8.265609,-9.655682,1.556425
491,370885177,0.575712,-0.521512,-0.448322,-0.442254,2.061453,-5.777548,-1.969806
492,370901844,0.565458,-0.543585,-0.402412,-0.472057,-7.127046,-2.513455,-2.408537
493,370918511,0.546407,-0.560174,-0.365255,-0.504216,-12.506073,2.437810,-2.468277
494,370935178,0.520443,-0.572162,-0.336926,-0.536890,-13.517690,3.945586,-0.517526
495,370951845,0.492057,-0.581858,-0.310849,-0.568061,-13.777199,7.532490,0.224918
496,370968512,0.469760,-0.591363,-0.285606,-0.589953,-13.640541,10.944814,-1.284200
497,370985179,0.454267,-0.597888,-0.269136,-0.603107,-16.029892,10.797911,0.798418
498,371001846,0.449501,-0.596605,-0.269928,-0.607577,-17.147804,11.419061,1.053470
499,371018513,0.449782,-0.590753,-0.282942,-0.607167,-12.689671,11.311388,-0.923579
500,371035180,0.452762,-0.582703,-0.304196,-0.602436,-8.383543,7.265700,-2.141346
501,371051847,0.455069,-0.575205,-0.328570,-0.595058,-4.134963,2.160000,-1.904715
502,371068514,0.461583,-0.566852,-0.352119,-0.584493,0.116747,-2.283896,-0.570719
503,371085181,0.474669,-0.557069,-0.373257,-0.570126,3.151169,-4.369093,0.278492
504,371101848,0.489580,-0.548782,-0.390999,-0.553416,5.170280,-5.321333,0.750015
505,371118515,0.504683,-0.541772,-0.403567,-0.537506,6.113902,-4.879186,0.339342
506,371135182,0.518056,-0.537385,-0.411570,-0.522920,5.957617,-4.106047,-0.263037
507,371151849,0.528343,-0.535903,-0.415040,-0.511277,4.983225,-2.829075,-0.053152
508,371168516,0.537737,-0.534210,-0.416017,-0.502382,3.608896,-2.058072,0.383862
509,371185183,0.544840,-0.532728,-0.414845,-0.497247,3.049463,-0.931330,0.173392
510,371201850,0.547827,-0.532614,-0.412406,-0.496114,2.406698,-0.756790,0.439331
511,371218517,0.548420,-0.533191,-0.408841,-0.497787,2.146302,-1.211765,1.430967
512,371235184,0.549091,-0.533504,-0.404229,-0.500472,2.168674,-1.080616,1.422241
513,371251851,0.549022,-0.534500,-0.398243,-0.504270,1.139391,-0.575437,0.859086
514,371268518,0.547789,-0.535560,-0.392637,-0.508861,0.535370,0.738600,0.633299
515,371285185,0.545805,-0.536972,-0.387519,-0.513408,-1.058968,-0.086716,0.628119
516,371301852,0.543723,-0.537388,-0.383809,-0.517947,-0.641399,1.009399,0.201986
517,371318519,0.540692,-0.537748,-0.381561,-0.522390,-0.505415,0.506747,-0.126587
518,371335186,0.537856,-0.537625,-0.380011,-0.526557,-0.315456,-0.252343,0.341499
519,371351853,0.536678,-0.536405,-0.379035,-0.529697,0.467628,-0.032577,-0.173645
520,371368520,0.534935,-0.536770,-0.376904,-0.532603,0.063051,0.436834,-0.426480
521,371385187,0.534078,-0.536245,-0.376284,-0.534427,-0.576315,0.425561,-0.399627
522,371401854,0.533817,-0.535475,-0.377081,-0.534898,-0.182170,0.579844,-0.404415
523,371418521,0.533676,-0.534808,-0.378566,-0.534658,-0.344598,0.231618,-0.310021
524,371435188,0.533972,-0.533847,-0.381121,-0.533506,0.109549,0.016950,-0.187383
525,371451855,0.533854,-0.533275,-0.383142,-0.532748,0.334452,-0.128897,-0.068769
526,371468522,0.533572,-0.532865,-0.384723,-0.532300,0.551105,-0.210438,-0.098733
527,371485189,0.532388,-0.533377,-0.385168,-0.532652,0.620655,-0.163345,-0.081925
528,371501856,0.530719,-0.534022,-0.384998,-0.533793,0.126439,-0.186599,0.098315
529,371518523,0.528738,-0.534658,-0.384387,-0.535559,-0.013491,0.176748,0.143845
530,371535190,0.526488,-0.535262,-0.383534,-0.537780,-0.133162,0.167694,0.053757
531,371551857,0.523657,-0.536423,-0.382358,-0.540219,-0.166935,0.273980,0.055864
532,371568524,0.520989,-0.537205,-0.381665,-0.542507,-0.438348,0.136665,0.114714
533,371585191,0.519303,-0.537312,-0.381815,-0.543909,0.437058,0.344265,-0.177098
534,371601858,0.516977,-0.538704,-0.380371,-0.545757,-0.366315,0.394894,-0.244360
535,371618525,0.517352,-0.539732,-0.380909,-0.544008,0.453799,0.492062,-0.522632
536,371635192,0.517123,-0.541949,-0.379838,-0.542770,-0.171972,0.344556,-0.327264
537,371651859,0.519005,-0.541981,-0.381189,-0.539986,0.072958,0.461764,-0.378238
538,371668526,0.520479,-0.542615,-0.380967,-0.538084,0.160498,0.585096,-0.712761
539,371685193,0.521220,-0.543612,-0.381619,-0.535894,-0.094687,0.398324,-0.141830
540,371701860,0.521757,-0.544110,-0.382569,-0.534186,-0.445868,0.021213,0.046647
541,371718527,0.522210,-0.544057,-0.384003,-0.532767,0.002904,0.197854,0.058627
542,371735194,0.521469,-0.544310,-0.384749,-0.532696,-0.045592,0.192594,0.177029
543,371751861,0.520335,-0.544379,-0.385551,-0.533155,-0.141025,-0.339413,0.446123
544,371768528,0.518976,-0.544168,-0.386008,-0.534363,-0.108477,-0.479782,0.539154
545,371785195,0.517955,-0.543183,-0.386281,-0.536155,0.163537,-0.272256,0.605869
546,371801862,0.516459,-0.542453,-0.385596,-0.538823,0.089948,-0.355654,0.437409
547,371818529,0.513183,-0.543134,-0.383673,-0.542627,-0.327691,-0.251124,0.463250
548,371835196,0.510700,-0.542645,-0.382857,-0.546024,-0.009441,0.279004,-0.031525
549,371851863,0.509096,-0.542404,-0.381316,-0.548832,0.000031,0.267628,-0.429000
550,371868530,0.508908,-0.542468,-0.379829,-0.549974,0.145324,0.894835,-0.593441
551,371885197,0.510297,-0.542320,-0.378484,-0.549760,-0.294650,0.325589,-0.334635
552,371901864,0.514479,-0.540854,-0.378132,-0.547545,0.707249,-0.061971,0.151854
553,371918531,0.517835,-0.541197,-0.375094,-0.546129,-0.456462,-0.354610,0.458519
554,371935198,0.524386,-0.539435,-0.373791,-0.542504,0.045179,0.312539,-0.051518
555,371951865,0.533112,-0.537726,-0.371800,-0.537037,1.160412,0.507069,-0.582512
556,371968532,0.542226,-0.538208,-0.368060,-0.529957,-0.374850,-0.124537,-0.033532
557,371985199,0.553439,-0.537873,-0.366095,-0.519974,0.811219,0.093940,0.244021
558,372001866,0.562806,-0.538783,-0.362864,-0.511168,0.053043,-0.374778,0.094828
559,372018533,0.571662,-0.538103,-0.361291,-0.503107,-0.578272,-0.645275,0.769595
560,372035200,0.581302,-0.534300,-0.360733,-0.496471,0.485260,-0.524286,0.606878
561,372051867,0.589113,-0.536260,-0.358186,-0.486902,0.974410,-0.354818,-0.322480
562,372068534,0.597271,-0.541464,-0.355161,-0.473228,0.567229,0.586910,-0.220964
563,372085201,0.607413,-0.546962,-0.357157,-0.452019,-0.895982,-0.919443,-0.136395
564,372101868,0.617623,-0.552863,-0.361843,-0.426560,0.672907,-0.344507,0.940051
565,372118535,0.626654,-0.555968,-0.363580,-0.407447,0.357867,-1.112964,0.985134
566,372135202,0.632517,-0.559547,-0.360741,-0.395847,1.368212,-0.080071,0.721433
567,372151869,0.633602,-0.566596,-0.353753,-0.390354,0.128083,-0.078724,0.130745
568,372168536,0.633015,-0.574110,-0.347502,-0.385918,0.402360,-0.599017,0.510769
569,372185203,0.635720,-0.574878,-0.342941,-0.384404,0.004637,0.324891,-0.075923
570,372201870,0.636340,-0.578210,-0.338594,-0.382229,-0.126964,0.760824,0.071376
571,372218537,0.636244,-0.581716,-0.336948,-0.378505,-0.291005,1.045497,-0.033008
572,372235204,0.635340,-0.584263,-0.338711,-0.374507,-1.099762,1.508773,0.095010
573,372251871,0.631964,-0.587430,-0.343433,-0.370947,-0.863139,1.857242,0.024306
574,372268538,0.624882,-0.592105,-0.350795,-0.368614,-0.841976,1.828432,0.012407
575,372285205,0.613521,-0.598229,-0.360905,-0.368051,-1.225912,1.916261,-0.100414
576,372301872,0.598195,-0.605336,-0.374263,-0.368319,-1.212257,1.885342,-0.580315
577,372318539,0.579419,-0.613147,-0.390520,-0.368535,-1.468143,0.681815,-0.040747
578,372335206,0.559064,-0.620669,-0.408424,-0.367977,0.011896,0.356684,-0.092011
579,372351873,0.538490,-0.628015,-0.426068,-0.366185,0.813792,0.605081,-0.560659
580,372368540,0.517450,-0.635786,-0.443229,-0.362725,0.542794,0.835875,-1.040833
581,372385207,0.495310,-0.645335,-0.458410,-0.357871,0.296860,0.344065,-0.860759
582,372401874,0.473701,-0.652348,-0.475832,-0.351616,-0.662732,-0.959066,0.181299
583,372418541,0.451997,-0.659195,-0.491374,-0.345993,1.040249,-0.243994,-0.397317
584,372435208,0.431283,-0.664989,-0.507460,-0.338038,-0.292340,0.105575,-1.759174
585,372451875,0.409890,-0.670960,-0.523865,-0.327672,0.833064,0.873855,-2.869773
586,372468542,0.383790,-0.679323,-0.538062,-0.318927,-0.032920,-0.285932,-2.071055
587,372485209,0.357512,-0.686470,-0.553289,-0.307922,0.337516,-0.751667,-1.749928
588,372501876,0.328501,-0.692894,-0.568019,-0.298897,0.791515,-0.731531,-1.811743
589,372518543,0.298176,-0.697831,-0.583317,-0.289593,0.450687,-1.109047,-1.237700
590,372535210,0.269322,-0.701395,-0.597678,-0.279809,0.568268,-0.994656,-0.194675
591,372551877,0.244373,-0.703770,-0.610422,-0.269027,-0.082174,-1.136136,0.687858
592,372568544,0.223944,-0.705340,-0.621090,-0.258053,0.876673,-0.755448,1.343166
593,372585211,0.206097,-0.707285,-0.628993,-0.248274,1.290960,-0.290351,1.717922
594,372601878,0.189110,-0.708540,-0.636501,-0.238903,1.232329,-0.271598,1.400795
595,372618545,0.172960,-0.709436,-0.642171,-0.233244,0.658742,-0.354060,-0.959569
596,372635212,0.155566,-0.709030,-0.649107,-0.227457,-0.102439,-0.824289,-2.003479
597,372651879,0.136486,-0.707522,-0.657022,-0.221599,0.172827,-0.952754,-1.652332
598,372668546,0.117123,-0.705702,-0.664549,-0.215967,0.029122,-0.639957,0.134430
599,372685213,0.099832,-0.703139,-0.671962,-0.209994,0.146873,-0.200252,1.475902
600,372701880,0.083886,-0.701924,-0.676832,-0.205341,0.746447,0.506841,1.674278
601,372718547,0.071175,-0.699606,-0.682198,-0.200230,-0.148981,-0.089332,0.480389
602,372735214,0.057354,-0.697766,-0.686321,-0.196969,-0.847803,-0.610536,-0.504764
603,372751881,0.040913,-0.695182,-0.690540,-0.195456,1.105415,0.029644,-0.558012
604,372768548,0.024017,-0.692885,-0.694026,-0.194066,-1.231000,-0.468075,0.143825
605,372785215,0.010829,-0.689897,-0.698747,-0.188886,-0.420181,0.190503,0.195857
606,372801882,-0.000654,-0.687105,-0.702846,-0.184104,-0.051669,1.008344,0.420952
607,372818549,-0.011816,-0.685184,-0.705164,-0.182011,-0.476851,-0.067316,0.515982
608,372835216,-0.020356,-0.681988,-0.709068,-0.178047,1.103698,-0.028921,-1.438384
609,372851883,-0.033336,-0.679963,-0.711114,-0.175657,0.167869,-1.538801,-2.008178
610,372868550,-0.047893,-0.675154,-0.716011,-0.170884,1.083700,-1.044345,-1.851229
611,372885217,-0.065973,-0.671199,-0.718878,-0.168388,0.503806,-0.622806,-1.065899
612,372901884,-0.082785,-0.665924,-0.723182,-0.163401,-0.521182,0.327130,0.674856
613,372918551,-0.097161,-0.661245,-0.726865,-0.158056,-0.150700,0.868538,1.113653
614,372935218,-0.109785,-0.657008,-0.730075,-0.152571,0.189177,0.023664,0.144015
615,372951885,-0.122823,-0.652123,-0.733485,-0.147137,0.231341,-0.908433,-0.471690
616,372968552,-0.142169,-0.649275,-0.733681,-0.141217,4.007005,-1.231836,-2.512417
617,372985219,-0.166911,-0.645634,-0.730900,-0.145197,-3.358255,0.930156,3.447296
618,373001886,-0.178833,-0.641459,-0.732385,-0.141992,0.764709,-0.183160,-0.366740
619,373018553,-0.190305,-0.636888,-0.734123,-0.138639,-0.083799,0.358972,0.855754
620,373035220,-0.199059,-0.632078,-0.736285,-0.136884,-0.165578,1.476875,1.259989
621,373051887,-0.205039,-0.628372,-0.737893,-0.136459,-0.470405,1.699790,1.392730
622,373068554,-0.207402,-0.626056,-0.739368,-0.135551,-0.616085,0.258789,0.861287
623,373085221,-0.209074,-0.625265,-0.740083,-0.132701,0.168306,-1.889319,-0.871938
624,373101888,-0.212779,-0.624212,-0.740592,-0.128877,0.725865,-1.572860,-0.753897
625,373118555,-0.218796,-0.621292,-0.741578,-0.127231,0.995580,0.629685,0.363946
626,373135222,-0.224646,-0.617978,-0.742413,-0.128301,0.339741,2.028343,0.793476
627,373151889,-0.227027,-0.616622,-0.742591,-0.129595,-1.081581,1.392728,0.711874
628,373168556,-0.227117,-0.616732,-0.742570,-0.129031,-1.159671,-0.722042,-0.236155
629,373185223,-0.226380,-0.616621,-0.743218,-0.127115,-0.459909,-0.541017,-0.073833
630,373201890,-0.225713,-0.616031,-0.744232,-0.125216,0.255765,-0.126242,0.055212
631,373218557,-0.225439,-0.615695,-0.744813,-0.123900,0.752743,0.394361,0.355547
632,373235224,-0.225651,-0.615302,-0.745080,-0.123861,1.020466,0.478812,0.437114
633,373251891,-0.226388,-0.614672,-0.745297,-0.124336,0.419147,-0.204093,0.219707
634,373268558,-0.227446,-0.613704,-0.745711,-0.124704,-0.075140,-0.323019,0.190357
635,373285225,-0.228195,-0.612681,-0.746353,-0.124528,-0.178736,-0.326962,0.041498
636,373301892,-0.228476,-0.612355,-0.746673,-0.123692,0.159145,0.003087,0.057313
637,373318559,-0.228823,-0.612325,-0.746653,-0.123322,0.960911,0.271756,0.109594
638,373335226,-0.230113,-0.611513,-0.746732,-0.124465,0.798811,0.116424,0.199004
639,373351893,-0.231955,-0.610280,-0.746895,-0.126109,-0.121734,-0.257961,-0.058226
640,373368560,-0.233366,-0.609476,-0.746986,-0.126853,-0.788528,-0.483746,-0.168058
641,373385227,-0.233479,-0.609416,-0.747111,-0.126196,-0.790782,-0.310219,-0.192863
642,373401894,-0.232634,-0.609494,-0.747461,-0.125300,-0.096968,0.199990,0.151433
643,373418561,-0.231265,-0.609144,-0.748173,-0.125288,0.262310,0.285131,0.233264
644,373435228,-0.229674,-0.608837,-0.748777,-0.126098,0.610773,0.076845,0.084123
645,373451895,-0.228144,-0.609099,-0.748911,-0.126814,0.484842,-0.417317,-0.027828
646,373468562,-0.226624,-0.609797,-0.748788,-0.126910,0.196368,-0.723671,-0.128178
647,373485229,-0.225241,-0.610358,-0.748769,-0.126784,0.021438,-0.458797,0.019655
648,373501896,-0.223333,-0.611004,-0.748831,-0.126685,-0.111660,0.172306,0.199242
649,373518563,-0.220267,-0.612137,-0.748809,-0.126709,0.205337,0.438621,0.328017
650,373535230,-0.216759,-0.613670,-0.748475,-0.127318,0.496028,0.253367,0.305564
651,373551897,-0.213434,-0.615202,-0.747961,-0.128560,0.428318,-0.145194,0.119350
652,373568564,-0.210409,-0.616620,-0.747366,-0.130202,0.212476,-0.259198,0.082325
653,373585231,-0.207158,-0.618339,-0.746608,-0.131604,-0.229952,-0.268635,0.030656
654,373601898,-0.203023,-0.620622,-0.745713,-0.132374,-0.675698,-0.035681,0.142909
655,373618565,-0.197435,-0.622846,-0.745201,-0.133255,-0.683067,0.474421,0.469575
656,373635232,-0.190244,-0.624947,-0.745017,-0.134902,-0.219799,0.619366,0.593297
657,373651899,-0.182072,-0.627562,-0.744463,-0.137083,0.327429,0.342317,0.594140
658,373668566,-0.173509,-0.630541,-0.743523,-0.139596,0.387088,-0.162308,0.417049
659,373685233,-0.164760,-0.633540,-0.742462,-0.142242,-0.063307,-0.269785,0.352921
660,373701900,-0.154829,-0.636682,-0.741418,-0.144789,-0.371133,0.109923,0.747407
661,373718567,-0.142884,-0.640439,-0.740062,-0.147415,-0.246193,0.655290,1.061155
662,373735234,-0.128563,-0.644517,-0.738403,-0.151095,0.020940,1.043375,1.563282
663,373751901,-0.111460,-0.648735,-0.736356,-0.156528,0.190758,1.250877,1.856089
664,373768568,-0.091155,-0.653613,-0.733571,-0.162339,-0.065597,0.311549,1.700994
665,373785235,-0.068028,-0.659302,-0.730062,-0.166444,-0.895024,-0.994186,0.971024
666,373801902,-0.043017,-0.665122,-0.726119,-0.168862,-0.413535,-0.746132,1.009564
667,373818569,-0.016743,-0.670304,-0.721693,-0.171967,0.633164,0.094232,1.816683
668,373835236,0.010747,-0.675206,-0.716088,-0.176632,1.504190,0.389830,1.851283
669,373851903,0.038963,-0.680339,-0.708713,-0.182612,1.522932,-0.289568,1.123448
670,373868570,0.067277,-0.684781,-0.700637,-0.188832,0.269898,-1.589230,0.400213
671,373885237,0.094665,-0.687620,-0.693082,-0.194565,0.026987,-2.055244,-0.869094
672,373901904,0.120948,-0.689589,-0.685614,-0.199430,0.531486,-1.228695,-0.212233
673,373918571,0.148070,-0.690754,-0.677497,-0.204776,0.920860,-0.619619,1.332352
674,373935238,0.176742,-0.691190,-0.668132,-0.211230,1.812523,-0.716913,0.797153
675,373951905,0.205786,-0.691472,-0.657282,-0.217944,1.695449,-1.108429,-0.438615
676,373968572,0.234546,-0.690514,-0.646346,-0.224535,0.222419,-1.553856,-0.838919
677,373985239,0.264055,-0.686997,-0.636073,-0.231780,-0.240928,-1.602043,0.300389
678,374001906,0.295102,-0.680697,-0.625699,-0.240972,0.055716,-1.585001,0.296371
679,374018573,0.326558,-0.672927,-0.614776,-0.250159,0.602759,-1.327603,-1.238939
680,374035240,0.356526,-0.666174,-0.602611,-0.256829,0.692727,-0.454620,-2.738694
681,374051907,0.383688,-0.660186,-0.590410,-0.261447,-0.749657,-0.413409,-2.479919
682,374068574,0.407919,-0.653165,-0.579608,-0.266520,-1.556757,-0.112302,-2.015163
683,374085241,0.429581,-0.644944,-0.570306,-0.272504,-0.974200,0.361594,-1.746943
684,374101908,0.449227,-0.636721,-0.561355,-0.278679,-0.234910,0.466151,-1.028579
685,374118575,0.468100,-0.628731,-0.552036,-0.284317,0.118604,0.367080,-0.598006
686,374135242,0.486058,-0.621613,-0.542187,-0.288755,-0.046760,0.665284,-1.142995
687,374151909,0.502630,-0.615384,-0.532440,-0.291847,-0.337094,0.843451,-1.333037
688,374168576,0.517504,-0.609565,-0.523210,-0.294740,-0.480277,0.587766,-0.976606
689,374185243,0.530642,-0.603868,-0.514539,-0.298349,-0.178641,0.430714,-0.824207
690,374201910,0.542486,-0.598359,-0.506401,-0.302050,-0.208204,0.431222,-0.860814
691,374218577,0.553919,-0.592721,-0.498986,-0.304743,-0.586531,0.174959,-0.713128
692,374235244,0.565357,-0.587084,-0.492166,-0.305740,-0.311310,0.417059,-0.704334
693,374251911,0.576020,-0.582251,-0.485852,-0.305176,-0.150124,0.539780,-0.750974
694,374268578,0.585337,-0.578016,-0.480175,-0.304484,0.221450,0.697592,-0.610382
695,374285245,0.593082,-0.574474,-0.474911,-0.304457,0.400872,0.713598,-0.583735
696,374301912,0.599322,-0.571527,-0.470257,-0.305005,-0.059249,0.551029,-0.516362
697,374318579,0.604219,-0.568920,-0.466657,-0.305746,-0.324116,0.464051,-0.425735
698,374335246,0.607936,-0.566893,-0.464042,-0.306123,-0.128657,0.397476,-0.310272
699,374351913,0.611106,-0.565368,-0.461850,-0.305947,0.330565,0.112706,0.111365
700,374368580,0.614206,-0.564170,-0.459335,-0.305736,0.588156,-0.264419,0.479460
701,374385247,0.617471,-0.562750,-0.456423,-0.306138,0.569127,-0.350599,0.464406
702,374401914,0.620726,-0.561281,-0.453318,-0.306866,0.338896,-0.199227,0.293664
703,374418581,0.623878,-0.559743,-0.450597,-0.307288,-0.299135,0.037862,0.089262
704,374435248,0.626495,-0.558250,-0.448949,-0.307092,-0.544925,0.486822,-0.145464
705,374451915,0.628005,-0.557329,-0.448246,-0.306708,-0.145900,0.553912,-0.153432
706,374468582,0.628441,-0.556813,-0.447916,-0.307234,0.300748,0.266556,0.088234
707,374485249,0.628323,-0.556379,-0.447619,-0.308691,0.257123,0.098449,0.105010
708,374501916,0.628356,-0.555767,-0.447497,-0.309901,0.177720,-0.110900,0.169801
709,374518583,0.629095,-0.554916,-0.447399,-0.310069,0.183725,-0.186689,0.156730
710,374535250,0.630357,-0.553994,-0.447375,-0.309187,0.164168,0.177624,-0.108453
711,374551917,0.631139,-0.553490,-0.447513,-0.308293,0.093592,0.296841,-0.219983
712,374568584,0.630852,-0.553476,-0.447691,-0.308647,0.248340,0.496985,-0.287184
713,374585251,0.629558,-0.553958,-0.447971,-0.310017,0.099115,0.572704,-0.448124
714,374601918,0.627981,-0.554431,-0.448657,-0.311372,-0.016622,0.005715,-0.134670
715,374618585,0.627449,-0.554390,-0.449139,-0.311823,0.345145,-0.390160,0.182217
716,374635252,0.628311,-0.553884,-0.449048,-0.311117,0.348629,-0.251394,0.104907
717,374651919,0.629642,-0.553389,-0.448438,-0.310186,0.268646,-0.220480,0.189218
718,374668586,0.631087,-0.552828,-0.447227,-0.309997,0.405134,0.051137,0.039035
719,374685253,0.632154,-0.552484,-0.445996,-0.310212,-0.147493,0.498781,-0.368693
720,374701920,0.632446,-0.552459,-0.445664,-0.310136,-0.784350,0.549771,-0.521816
721,374718587,0.632166,-0.552472,-0.446429,-0.309584,-0.533199,0.504054,-0.383083
722,374735254,0.631591,-0.552819,-0.447365,-0.308787,0.252430,0.136321,0.021570
723,374751921,0.631311,-0.553047,-0.447624,-0.308575,0.491704,-0.339490,0.457651
724,374768588,0.631723,-0.552892,-0.447157,-0.308686,0.406729,-0.014142,0.207170
725,374785255,0.632165,-0.553051,-0.446740,-0.308101,-0.055126,0.493796,-0.287959
726,374801922,0.631978,-0.553651,-0.447076,-0.306917,-0.354131,0.553452,-0.402984
727,374818589,0.630913,-0.554550,-0.448286,-0.305717,-0.289604,0.611330,-0.358362
728,374835256,0.628604,-0.555940,-0.450332,-0.304943,-0.273091,0.562608,-0.255618
729,374851923,0.625468,-0.557508,-0.452962,-0.304632,0.056702,0.342660,0.051925
730,374868590,0.622440,-0.559164,-0.455456,-0.304080,0.282288,0.160657,0.287796
731,374885257,0.619902,-0.561094,-0.457514,-0.302616,0.531635,0.273989,0.177986
732,374901924,0.617423,-0.563975,-0.459124,-0.299877,0.866020,0.874967,-0.286982
733,374918591,0.614673,-0.567881,-0.460680,-0.295741,0.319145,0.682377,-0.426978
734,374935258,0.611247,-0.572296,-0.462827,-0.290939,-0.469102,0.577790,-0.286971
735,374951925,0.606712,-0.576968,-0.465770,-0.286473,-0.750414,0.280952,0.030230
736,374968592,0.601546,-0.581297,-0.469489,-0.282519,-0.595625,0.192660,0.167494
737,374985259,0.595804,-0.585490,-0.473942,-0.278564,-0.815430,0.195061,0.126719
738,375001926,0.589749,-0.589710,-0.479246,-0.273428,-0.315329,0.618513,-0.245971
739,375018593,0.582944,-0.594753,-0.485178,-0.266549,-0.409156,0.656011,-0.459842
740,375035260,0.575064,-0.599720,-0.492448,-0.259100,-1.234565,0.139631,-0.151091
741,375051927,0.565439,-0.604463,-0.501115,-0.252561,-0.957992,-0.046688,0.049323
742,375068594,0.554449,-0.608753,-0.510756,-0.247254,0.021780,0.030413,0.155793
743,375085261,0.542619,-0.613265,-0.520452,-0.242076,0.761820,0.467162,-0.335175
744,375101928,0.529896,-0.618354,-0.530400,-0.235637,0.310660,0.538076,-0.909802
745,375118595,0.515213,-0.624151,-0.541041,-0.228616,-0.386939,-0.041486,-0.752036
746,375135262,0.498748,-0.629121,-0.553056,-0.222679,-0.240890,-0.155863,-0.650246
747,375151929,0.480916,-0.633496,-0.565791,-0.217449,0.426323,-0.224812,-0.660475
748,375168596,0.463179,-0.636889,-0.578929,-0.211373,0.455408,-0.554660,-0.162716
749,375185263,0.446025,-0.639818,-0.591559,-0.204334,0.972656,-0.337862,-0.167606
750,375201930,0.428729,-0.643455,-0.603013,-0.196299,1.351483,0.151519,-0.885442
751,375218597,0.410607,-0.647635,-0.613830,-0.187574,0.519544,-0.163720,-1.051331
752,375235264,0.391954,-0.650581,-0.625215,-0.179508,-0.333705,-0.666753,-0.446561
753,375251931,0.372778,-0.652544,-0.636771,-0.172470,0.320970,-0.237600,-0.868012
754,375268598,0.353139,-0.654553,-0.647868,-0.164679,0.879263,0.143524,-1.847941
755,375285265,0.332219,-0.657034,-0.658560,-0.155680,0.168209,-0.282237,-2.211250
756,375301932,0.309695,-0.658771,-0.669645,-0.147260,-0.213546,-0.812849,-0.657184
757,375318599,0.287773,-0.659441,-0.680279,-0.139802,0.702735,-0.309420,-0.006576
758,375335266,0.267098,-0.660113,-0.689588,-0.131825,0.731714,-0.239464,-0.255515
759,375351933,0.247562,-0.661134,-0.697562,-0.122570,0.478703,-0.396568,-0.968552
760,375368600,0.228644,-0.661809,-0.705123,-0.111944,-0.784594,-1.093142,-0.938922
761,375385267,0.210365,-0.661226,-0.712956,-0.101100,-0.754900,-0.734382,0.080393
762,375401934,0.193835,-0.660071,-0.720065,-0.090774,0.699082,0.208624,0.252354
763,375418601,0.178323,-0.659921,-0.725434,-0.080314,0.786362,0.034767,-0.719662
764,375435268,0.162211,-0.660655,-0.729659,-0.069434,0.254712,-0.442122,-1.247650
765,375451935,0.145664,-0.661036,-0.733759,-0.058412,-0.231063,-0.892654,-1.031756
766,375468602,0.128707,-0.660500,-0.738183,-0.047544,-0.558752,-1.089408,-0.773232
767,375485269,0.111607,-0.659310,-0.742633,-0.036757,-0.041691,-0.531302,-0.166492
768,375501936,0.095083,-0.657918,-0.746583,-0.026765,0.146389,0.189331,0.991179
769,375518603,0.080337,-0.656416,-0.749900,-0.017739,0.175450,0.279030,1.075484
770,375535270,0.066597,-0.655852,-0.751902,-0.008198,0.628739,-0.381743,-0.232071
771,375551937,0.052260,-0.656492,-0.752516,0.002860,0.512674,-1.133812,-0.762573
772,375568604,0.036606,-0.656372,-0.753431,0.013370,-0.140685,-1.115191,0.213422
773,375585271,0.020622,-0.654075,-0.755836,0.021734,0.329304,-0.553219,0.463651
774,375601938,0.004570,-0.651318,-0.758234,0.029083,1.072962,-0.252920,0.107740
775,375618605,-0.011664,-0.649504,-0.759407,0.036198,0.661578,0.197050,0.897531
776,375635272,-0.026198,-0.648122,-0.759873,0.042960,0.238964,0.349870,1.249079
777,375651939,-0.039126,-0.647341,-0.759560,0.049880,0.459901,-0.325243,0.502719
778,375668606,-0.052339,-0.647470,-0.758102,0.057670,0.877427,-1.083344,-0.317215
779,375685273,-0.067453,-0.647268,-0.756519,0.064603,0.838928,-0.844422,-0.218915
780,375701940,-0.083514,-0.644824,-0.756650,0.068620,0.534600,0.008456,0.687675
781,375718607,-0.099195,-0.641750,-0.757203,0.070428,0.912056,0.241420,0.453093
782,375735274,-0.114539,-0.640265,-0.756031,0.073206,0.484061,-0.484633,0.163596
783,375751941,-0.129538,-0.639794,-0.753576,0.077507,-0.330429,-0.807132,0.192257
784,375768608,-0.144097,-0.638100,-0.751989,0.081103,-0.771736,0.251589,0.952224
785,375785275,-0.156580,-0.636181,-0.750796,0.084039,-0.112208,1.026790,0.653197
786,375801942,-0.167289,-0.636000,-0.748221,0.087659,0.059807,0.590970,0.003561
787,375818609,-0.177072,-0.636649,-0.744989,0.091193,0.510812,0.089211,-0.157793
788,375835276,-0.188799,-0.635890,-0.742540,0.092922,0.924948,-0.566271,-0.293426
789,375851943,-0.201666,-0.633480,-0.741223,0.092862,0.603354,-0.048601,-0.184094
790,375868610,-0.213889,-0.631306,-0.739724,0.092265,-0.028929,0.694474,0.185924
791,375885277,-0.224461,-0.630006,-0.737750,0.091842,-0.729701,0.859453,0.468162
792,375901944,-0.232296,-0.629132,-0.736084,0.091717,-1.023889,0.996383,0.533814
793,375918611,-0.237180,-0.628625,-0.734986,0.091496,-0.627797,0.867240,0.462285
794,375935278,-0.240372,-0.628950,-0.733656,0.091604,-0.241088,0.111016,0.303377
795,375951945,-0.243457,-0.629639,-0.731963,0.092270,0.063915,-0.667315,0.185318
796,375968612,-0.246960,-0.629908,-0.730487,0.092825,0.450319,-0.625551,0.083058
797,375985279,-0.251499,-0.629298,-0.729491,0.092607,0.093806,-0.776990,-0.130302
798,376001946,-0.255341,-0.628385,-0.729003,0.092127,-0.029750,0.239649,0.232539
799,376018613,-0.258203,-0.628111,-0.728291,0.091651,-0.367519,0.456922,0.275298
800,376035280,-0.260565,-0.628274,-0.727334,0.091449,-0.264635,-0.055196,0.170107
801,376051947,-0.262127,-0.628377,-0.726710,0.091237,-0.362154,-0.092810,0.380878
802,376068614,-0.263339,-0.628252,-0.726367,0.091345,-0.726184,-0.405873,0.416821
803,376085281,-0.263811,-0.628296,-0.726042,0.092259,-0.542236,-0.169444,0.347218
804,376101948,-0.263710,-0.628362,-0.725893,0.093257,-0.175933,0.275157,0.353205
805,376118615,-0.263061,-0.628205,-0.726203,0.093745,0.253657,0.064044,0.085842
806,376135282,-0.262298,-0.628220,-0.726475,0.093667,0.365426,0.088167,0.199793
807,376151949,-0.262040,-0.628512,-0.726341,0.093472,0.517789,-0.388991,0.014398
808,376168616,-0.262727,-0.628744,-0.725923,0.093223,0.470122,-0.309685,0.022078
809,376185283,-0.263797,-0.628663,-0.725688,0.092578,0.061719,0.085041,0.154132
810,376201950,-0.264060,-0.628781,-0.725565,0.091988,-0.335902,0.311784,0.225120
811,376218617,-0.263086,-0.629400,-0.725391,0.091922,-0.518312,0.312977,0.194782
812,376235284,-0.261025,-0.630296,-0.725309,0.092307,-0.238222,0.103789,0.150030
813,376251951,-0.258868,-0.631000,-0.725443,0.092513,0.250123,-0.045710,0.134655
814,376268618,-0.256916,-0.631584,-0.725646,0.092381,0.481038,-0.291479,0.086129
815,376285285,-0.255830,-0.632363,-0.725363,0.092287,0.653431,-0.457538,-0.059387
816,376301952,-0.255628,-0.633025,-0.724916,0.091822,0.762944,-0.217935,-0.057565
817,376318619,-0.255571,-0.633417,-0.724688,0.091073,0.236929,-0.144007,0.031553
818,376335286,-0.255209,-0.633925,-0.724424,0.090653,-0.026217,-0.037519,0.023233
819,376351953,-0.254588,-0.634539,-0.724170,0.090131,0.337591,0.298065,0.017894
820,376368620,-0.253984,-0.634785,-0.724407,0.088176,0.592423,0.796826,0.123263
821,376385287,-0.252550,-0.635261,-0.724837,0.085292,0.034218,0.563970,0.298503
822,376401954,-0.250122,-0.636993,-0.724355,0.083601,-0.380716,-0.329698,0.285858
823,376418621,-0.247779,-0.639126,-0.723387,0.082678,0.156916,-0.149946,0.332591
824,376435288,-0.245496,-0.640306,-0.723364,0.080523,0.219109,0.460952,0.452575
825,376451955,-0.242478,-0.640994,-0.724169,0.076888,-0.328578,1.134943,0.666476
826,376468622,-0.237442,-0.642633,-0.724804,0.072830,-0.610645,1.722113,0.848422
827,376485289,-0.229473,-0.645890,-0.724852,0.068979,-0.510797,1.547477,0.882429
828,376501956,-0.219405,-0.650151,-0.724532,0.064962,-0.163816,0.810958,0.947515
829,376518623,-0.208244,-0.654511,-0.724265,0.060744,-0.019210,-0.054348,0.818429
830,376535290,-0.197136,-0.658721,-0.723933,0.056080,0.320446,-0.222091,0.583100
831,376551957,-0.186358,-0.662632,-0.723624,0.050580,0.435256,-0.055668,0.578693
832,376568624,-0.175280,-0.666085,-0.723657,0.043904,0.083206,0.313060,0.841660
833,376585291,-0.162652,-0.669495,-0.723864,0.036637,-0.478370,0.523906,1.020221
834,376601958,-0.147892,-0.673649,-0.723497,0.029616,-0.657664,0.679762,1.145929
835,376618625,-0.130923,-0.678483,-0.722497,0.022796,-0.379878,0.514745,1.148704
836,376635292,-0.112182,-0.683048,-0.721545,0.015278,-0.062473,0.176268,1.233011
837,376651959,-0.092196,-0.687068,-0.720682,0.007442,-0.038176,-0.690680,1.026173
838,376668626,-0.072292,-0.690866,-0.719360,-0.000150,0.179867,-0.842733,0.714562
839,376685293,-0.053094,-0.694021,-0.717942,-0.008713,0.613173,-0.424867,0.845317
840,376701960,-0.033865,-0.696362,-0.716617,-0.019802,1.032270,0.613875,1.281571
841,376718627,-0.013581,-0.699095,-0.714118,-0.033425,1.180196,0.909787,1.800389
842,376735294,0.007670,-0.702575,-0.709903,-0.048657,0.309304,0.259987,2.291792
843,376751961,0.031225,-0.704949,-0.705669,-0.064055,-1.122945,-1.261558,2.387830
844,376768628,0.056416,-0.706279,-0.701261,-0.078864,-1.042763,-1.940975,1.477237
845,376785295,0.081175,-0.707611,-0.695762,-0.092806,-0.002342,-1.429585,1.350461
846,376801962,0.106551,-0.707963,-0.689797,-0.107779,0.634550,-1.033494,1.984873
847,376818629,0.133874,-0.707135,-0.682908,-0.125197,1.149929,-0.648434,2.617615
848,376835296,0.163992,-0.704517,-0.675404,-0.143501,0.351731,-2.664111,1.921350
849,376851963,0.193808,-0.701979,-0.666304,-0.160323,1.507313,-2.689049,-0.634044
850,376868630,0.223231,-0.700913,-0.654720,-0.173870,1.946024,-2.086739,-2.030891
851,376885297,0.250403,-0.699647,-0.642455,-0.187201,0.727039,-2.110963,-1.262505
852,376901964,0.276910,-0.695441,-0.631146,-0.203318,-0.041971,-2.422603,-0.238478
853,376918631,0.302817,-0.688799,-0.620717,-0.220383,-0.529342,-1.827773,-2.392561
854,376935298,0.327454,-0.680222,-0.611534,-0.236854,-1.528140,-1.676794,-2.644348
855,376951965,0.350941,-0.669826,-0.603394,-0.253160,-1.317982,-1.066644,-2.918776
856,376968632,0.373191,-0.658788,-0.595779,-0.267909,-0.473727,-0.462575,-2.766619
857,376985299,0.393158,-0.648908,-0.587311,-0.281799,0.153515,0.179038,-2.496711
858,377001966,0.411653,-0.639327,-0.578684,-0.294836,-0.191073,-0.029957,-1.888556
859,377018633,0.428870,-0.630080,-0.569720,-0.307390,-0.159591,0.137167,-1.783992
860,377035300,0.445149,-0.621528,-0.560801,-0.317880,-0.371536,0.421853,-2.015091
861,377051967,0.460382,-0.614005,-0.552121,-0.325896,-0.779638,0.914658,-2.131673
862,377068634,0.474352,-0.607386,-0.544325,-0.331335,-0.624004,1.419251,-2.267029
863,377085301,0.486470,-0.601744,-0.537296,-0.335505,-0.100519,1.512886,-1.938045
864,377101968,0.496190,-0.596949,-0.530984,-0.339859,-0.048931,1.610582,-1.822708
865,377118635,0.503443,-0.592906,-0.525659,-0.344515,-0.079229,1.556209,-1.798388
866,377135302,0.508907,-0.589480,-0.521649,-0.348439,-0.118543,1.487157,-1.656066
867,377151969,0.513317,-0.586777,-0.518782,-0.350804,0.150519,1.369636,-1.338689
868,377168636,0.517233,-0.584536,-0.516861,-0.351627,0.384369,0.974563,-0.864405
869,377185303,0.520171,-0.583070,-0.515152,-0.352236,0.332980,0.579380,-0.386143
870,377201970,0.522018,-0.581681,-0.513771,-0.353813,0.579721,0.201381,0.109834
871,377218637,0.523942,-0.579873,-0.512452,-0.355845,0.742070,0.364331,-0.006198
872,377235304,0.526122,-0.578010,-0.511788,-0.356614,0.203668,0.521918,-0.523945
873,377251971,0.528473,-0.576267,-0.512443,-0.355013,-0.203773,0.645239,-0.756488
874,377268638,0.529416,-0.575839,-0.513561,-0.352681,0.143600,0.075365,0.025974
875,377285305,0.529794,-0.575275,-0.514254,-0.352023,1.248720,-0.304724,0.969707
876,377301972,0.530824,-0.574221,-0.513699,-0.353002,1.191683,-0.024378,0.598513
877,377318639,0.532165,-0.573264,-0.512978,-0.353585,0.346488,0.298881,-0.178533
878,377335306,0.533223,-0.572843,-0.512970,-0.352685,-0.067622,0.367175,-0.503296
879,377351973,0.533470,-0.573087,-0.513490,-0.351154,-0.290643,0.216343,-0.317222
880,377368640,0.533205,-0.573078,-0.514352,-0.350310,0.112764,0.031877,0.200280
881,377385307,0.533210,-0.572497,-0.514732,-0.350693,0.709898,0.005125,0.552320
882,377401974,0.534584,-0.569409,-0.516133,-0.351570,-0.316643,-0.796229,0.555951
883,377418641,0.536214,-0.566874,-0.516850,-0.352129,0.784728,0.716747,0.008509
884,377435308,0.540601,-0.560122,-0.521059,-0.350017,-1.014153,-0.451677,-0.001065
885,377451975,0.554939,-0.538254,-0.536372,-0.338572,1.251204,1.664053,-0.483425
886,377468642,0.554373,-0.540022,-0.534377,-0.339835,-0.644476,-0.403648,0.007036
887,377485309,0.554541,-0.539935,-0.534412,-0.339645,0.054916,0.076284,0.180128
888,377501976,0.554460,-0.539707,-0.534298,-0.340319,0.183691,0.130924,0.133907
889,377518643,0.554558,-0.539394,-0.534180,-0.340839,-0.089925,0.195999,-0.043572
890,377535310,0.554972,-0.539058,-0.534253,-0.340582,-0.312367,0.094681,-0.051858
891,377551977,0.556095,-0.537671,-0.535142,-0.339545,-0.630168,-0.085832,-0.087953
892,377568644,0.557340,-0.536055,-0.536093,-0.338559,-0.035141,0.357368,-0.096981
893,377585311,0.559629,-0.534492,-0.529356,-0.347730,0.235870,0.800034,-0.133720
894,377601978,0.560235,-0.532741,-0.530559,-0.347608,-0.150545,-0.631960,0.743253
895,377618645,0.560467,-0.531001,-0.530491,-0.349993,0.267685,-0.229276,0.176423
896,377635312,0.561409,-0.528846,-0.531288,-0.350536,-0.093114,-0.373422,0.066460
897,377651979,0.561842,-0.527092,-0.531485,-0.352182,0.064905,-0.127049,0.028222
898,377668646,0.562678,-0.524446,-0.532692,-0.352971,0.160113,-0.157398,0.094924
899,377685313,0.563648,-0.521394,-0.534235,-0.353614,0.040179,-0.284244,0.189273
900,377701980,0.564501,-0.517820,-0.535908,-0.354972,-0.019409,-0.200917,0.151320
901,377718647,0.565629,-0.513902,-0.537737,-0.356102,0.143792,-0.114145,0.055223
902,377735314,0.566912,-0.510367,-0.539482,-0.356504,0.083913,-0.055660,-0.098435
903,377751981,0.568438,-0.506569,-0.541537,-0.356376,0.007605,0.015988,-0.131094
904,377768648,0.570117,-0.502396,-0.543844,-0.356090,-0.257255,-0.045008,-0.196076
905,377785315,0.571640,-0.497702,-0.547000,-0.355403,0.025830,0.138911,-0.308907
906,377801982,0.572451,-0.494403,-0.548425,-0.356505,0.306066,0.087332,-0.010533
907,377818649,0.572853,-0.492294,-0.548524,-0.358621,0.459092,0.133847,-0.145696
908,377835316,0.573308,-0.490687,-0.547639,-0.361436,0.201541,0.119412,-0.194656
909,377851983,0.572163,-0.489677,-0.546862,-0.365771,-0.044793,0.052158,-0.216428
910,377868650,0.571930,-0.487271,-0.546642,-0.369659,-0.092612,0.137394,-0.257085
911,377885317,0.569131,-0.487198,-0.546511,-0.374238,0.336845,0.476189,-0.403850
912,377901984,0.565603,-0.487735,-0.546331,-0.379119,-0.054027,0.255191,-0.305640
913,377918651,0.563088,-0.487844,-0.546644,-0.382257,-0.406257,0.191122,-0.299781
914,377935318,0.561225,-0.487311,-0.547391,-0.384601,-0.309297,0.133126,-0.167075
915,377951985,0.559487,-0.486348,-0.548662,-0.386536,-0.352051,-0.241508,0.095922
916,377968652,0.557909,-0.484953,-0.550028,-0.388623,-0.067906,0.002044,0.029537
917,377985319,0.555898,-0.483687,-0.551408,-0.391118,-0.636797,-0.203072,0.000070
918,378001986,0.554327,-0.481013,-0.554346,-0.392490,-0.561831,-0.291793,0.015827
919,378018653,0.553356,-0.477298,-0.558058,-0.393136,0.005379,0.040633,0.170590
920,378035320,0.552040,-0.473659,-0.561437,-0.394572,0.220756,-0.012078,0.195943
921,378051987,0.551452,-0.469780,-0.563931,-0.396472,0.813920,0.276104,0.246880
922,378068654,0.548268,-0.469188,-0.563904,-0.401594,-0.414296,0.010251,-0.112624
923,378085321,0.546944,-0.465716,-0.566262,-0.404114,-0.193991,0.175861,-0.380883
924,378101988,0.544837,-0.463540,-0.567993,-0.407023,0.153592,0.571503,-0.648808
925,378118655,0.542398,-0.461465,-0.570253,-0.409471,-0.018427,0.382621,-0.731246
926,378135322,0.540449,-0.458968,-0.572591,-0.411586,0.367044,0.627556,-0.765898
927,378151989,0.539197,-0.456288,-0.574485,-0.413563,0.218004,0.146549,-0.543138
928,378168656,0.557088,-0.434832,-0.574411,-0.413069,-1.812789,-3.805458,1.941863
929,378185323,0.562528,-0.426062,-0.573532,-0.416046,3.982589,5.806438,-3.054856
930,378201990,0.561988,-0.425204,-0.572791,-0.418666,-1.272641,-2.335521,-0.263770
931,378218657,0.561232,-0.424517,-0.574549,-0.417968,0.877554,0.200166,0.328445
932,378235324,0.561274,-0.423485,-0.576401,-0.416406,0.761158,0.288821,0.087692
933,378251991,0.560237,-0.424322,-0.576828,-0.416359,0.821403,-0.266842,0.313597
934,378268658,0.560582,-0.424860,-0.576361,-0.415993,0.925893,0.078602,0.266106
935,378285325,0.560050,-0.427276,-0.574167,-0.417266,-0.930068,-0.092586,-0.059464
936,378301992,0.560201,-0.426960,-0.574401,-0.417067,-0.756757,0.282963,-0.593306
937,378318659,0.559351,-0.427765,-0.574747,-0.416905,0.295733,0.828223,-0.750438
938,378335326,0.557584,-0.430586,-0.574582,-0.416596,0.649437,0.792432,-0.580550
939,378351993,0.555379,-0.435102,-0.573652,-0.416129,1.042911,0.877876,-0.146101
940,378368660,0.552453,-0.440879,-0.571567,-0.416811,0.022420,-0.031772,0.169915
941,378385327,0.550633,-0.444515,-0.570790,-0.416424,-0.432173,0.034537,0.025334
942,378401994,0.549535,-0.446575,-0.570418,-0.416180,-0.181695,0.354029,-0.246486
943,378418661,0.549773,-0.446821,-0.570718,-0.415189,-0.277257,0.544395,-0.580272
944,378435328,0.550978,-0.446113,-0.571725,-0.412961,0.506773,0.735339,-0.442142
945,378451995,0.551956,-0.446096,-0.571868,-0.411474,0.360835,0.643093,-0.327383
946,378468662,0.552745,-0.445620,-0.572225,-0.410433,-0.393155,0.304609,-0.141077
947,378485329,0.553678,-0.443799,-0.573379,-0.409537,-0.378247,0.352489,-0.182489
948,378501996,0.555301,-0.440940,-0.575059,-0.408069,0.347075,0.349114,-0.116488
949,378518663,0.557333,-0.438537,-0.575692,-0.406994,0.591940,0.664644,-0.064322
950,378535330,0.559813,-0.435951,-0.575085,-0.407226,-0.605148,0.266680,-0.078586
951,378551997,0.562336,-0.431879,-0.575407,-0.407634,-1.186553,0.320402,-0.246415
952,378568664,0.565012,-0.426177,-0.577670,-0.406733,-0.426273,1.016235,-0.516259
953,378585331,0.567517,-0.420698,-0.580292,-0.405215,0.299237,0.641819,-0.327869
954,378601998,0.570048,-0.415760,-0.582453,-0.403654,0.548148,1.101183,-0.181012
955,378618665,0.571847,-0.412495,-0.583412,-0.403075,0.653761,0.503018,-0.197607
956,378635332,0.572940,-0.410429,-0.583037,-0.404173,-0.699732,0.578531,-0.501659
957,378651999,0.574204,-0.407388,-0.583451,-0.404859,-1.503172,-0.164236,-0.621675
958,378668666,0.576980,-0.402173,-0.585869,-0.402627,-0.825775,0.720282,-0.689528
959,378685333,0.580707,-0.396810,-0.588428,-0.398840,0.185336,-0.097521,-0.509856
960,378702000,0.583905,-0.393556,-0.589481,-0.395829,0.132696,0.822136,-0.442030
961,378718667,0.587362,-0.390287,-0.590908,-0.391804,0.245965,0.794778,-0.504796
962,378735334,0.590913,-0.387102,-0.592105,-0.387796,0.099182,0.339050,-0.201826
963,378752001,0.594152,-0.384537,-0.592512,-0.384767,-0.313202,-0.353412,-0.648032
964,378768668,0.597122,-0.382492,-0.592334,-0.382473,-0.896643,0.174543,-0.886541
965,378785335,0.601393,-0.378749,-0.593377,-0.377864,-1.817401,0.692490,-1.756003
966,378802002,0.608132,-0.371285,-0.598502,-0.366220,-0.897528,-0.026281,-1.391875
967,378818669,0.614996,-0.363816,-0.602734,-0.355147,0.514020,-0.044092,-0.446934
968,378835336,0.623109,-0.357796,-0.602906,-0.346730,-0.231070,-0.653286,-0.642426
969,378852003,0.633084,-0.348031,-0.605207,-0.334369,-0.055684,-0.762499,-0.438354
970,378868670,0.642083,-0.337639,-0.607429,-0.323666,-0.079921,-1.188983,0.259225
971,378885337,0.649609,-0.327162,-0.608584,-0.317174,0.444196,0.224074,-0.022333
972,378902004,0.656875,-0.317051,-0.608754,-0.312111,0.297113,-0.526040,-0.742654
973,378918671,0.663142,-0.308907,-0.607930,-0.308611,-0.000933,0.006136,-0.890154
974,378935338,0.669188,-0.300740,-0.607277,-0.304889,-0.027726,-0.125364,-1.017982
975,378952005,0.674263,-0.294647,-0.605709,-0.302768,0.061572,0.034990,-0.859310
976,378968672,0.678078,-0.290227,-0.604200,-0.301532,-0.257198,-0.137809,-0.827331
977,378985339,0.681109,-0.286193,-0.603172,-0.300614,-0.856693,-0.516057,-0.874721
978,379002006,0.683462,-0.282146,-0.602892,-0.299657,-0.354992,0.097118,-0.810843
979,379018673,0.684839,-0.278675,-0.603733,-0.298064,0.485592,-0.328443,-0.260880
980,379035340,0.685304,-0.277453,-0.604095,-0.297402,-0.014820,-0.241974,0.163224
981,379052007,0.684977,-0.276550,-0.605016,-0.297123,-0.754885,-1.213122,0.068181
982,379068674,0.684339,-0.274013,-0.607807,-0.295243,-0.256674,-0.578586,0.075304
983,379085341,0.684446,-0.271036,-0.610275,-0.292639,0.993914,-0.281600,0.368430
984,379102008,0.684420,-0.270834,-0.611003,-0.291365,0.652339,-0.583017,0.732969
985,379118675,0.684567,-0.271279,-0.611449,-0.289665,0.925228,-0.414577,1.185105
986,379135342,0.684749,-0.272853,-0.610679,-0.289382,0.243721,-0.446450,1.738340
987,379152009,0.683680,-0.275842,-0.609751,-0.291027,-0.628101,-1.204835,1.956978
988,379168676,0.683003,-0.275445,-0.611340,-0.289656,0.151222,-0.602194,1.716150
989,379185343,0.682785,-0.276716,-0.610722,-0.290263,0.676383,-0.157907,1.434288
990,379202010,0.682154,-0.279584,-0.608966,-0.292675,-0.013032,-0.326831,1.092354
991,379218677,0.682893,-0.282058,-0.606693,-0.293301,-0.462692,-0.453236,1.234818
992,379235344,0.681811,-0.285888,-0.605950,-0.293644,-0.428882,0.023705,0.988028
993,379252011,0.681918,-0.289019,-0.604666,-0.292977,-0.580916,-0.321590,0.991420
994,379268678,0.681476,-0.291259,-0.604689,-0.291735,-0.651576,-0.446951,1.030692
995,379285345,0.680562,-0.292728,-0.605334,-0.291061,-0.749291,-0.407312,0.847072
996,379302012,0.679525,-0.293064,-0.606867,-0.289951,-0.124015,-0.276373,0.966443
997,379318679,0.678732,-0.293658,-0.608126,-0.288566,0.377058,-0.077006,1.250586
998,379335346,0.678335,-0.295287,-0.607909,-0.288296,0.085601,-0.112065,1.097997
999,379352013,0.678389,-0.296894,-0.606876,-0.288694,-0.406400,-0.282503,0.769019
1000,379368680,0.678675,-0.297850,-0.606307,-0.288231,-0.170557,-0.069603,0.532115
1001,379385347,0.678898,-0.299888,-0.605001,-0.288337,-0.196094,-0.105352,0.460148
1002,379402014,0.679253,-0.301559,-0.603899,-0.288070,-0.428380,-0.135027,0.465215
1003,379418681,0.679574,-0.302238,-0.603624,-0.287173,-0.441713,-0.299159,0.345242
1004,379435348,0.679675,-0.302295,-0.603950,-0.286189,-0.351955,-0.041380,0.037675
1005,379452015,0.679272,-0.302649,-0.604666,-0.285259,-0.172705,0.131349,-0.176364
1006,379468682,0.678390,-0.303642,-0.605475,-0.284585,-0.184644,-0.088460,-0.103354
1007,379485349,0.677473,-0.303990,-0.607291,-0.282520,-0.013158,-0.135849,-0.141033
1008,379502016,0.676840,-0.304373,-0.608544,-0.280925,0.167518,-0.139264,-0.096522
1009,379518683,0.676357,-0.304598,-0.609573,-0.279612,0.329377,-0.188257,-0.143214
1010,379535350,0.675938,-0.305380,-0.610067,-0.278692,0.280101,-0.171014,-0.343673
1011,379552017,0.675127,-0.308530,-0.611782,-0.273379,2.937468,-0.809880,6.562689
1012,379568684,0.677910,-0.311391,-0.606635,-0.274714,0.984896,3.483232,0.274959
1013,379585351,0.677845,-0.317116,-0.600626,-0.281448,-1.915185,-3.762910,0.040730
1014,379602018,0.678030,-0.315475,-0.601810,-0.280315,-0.852344,1.770319,-0.795475
1015,379618685,0.678670,-0.315029,-0.601217,-0.280539,-1.477050,-0.187336,-0.884494
1016,379635352,0.677368,-0.315351,-0.602562,-0.280439,-0.834376,-0.582026,-0.101511
1017,379652019,0.676613,-0.314177,-0.604511,-0.279384,0.410277,-0.066694,0.222108
1018,379668686,0.675949,-0.314082,-0.605816,-0.278267,1.326767,0.045299,0.269069
1019,379685353,0.675520,-0.315724,-0.605266,-0.278648,0.879718,-0.666206,0.272782
1020,379702020,0.676131,-0.316005,-0.604630,-0.278227,1.228410,-0.104680,0.492076
1021,379718687,0.676644,-0.318810,-0.601183,-0.281234,-0.240764,-1.047926,0.146699
1022,379735354,0.677742,-0.318602,-0.599668,-0.282060,-0.638058,0.086939,-0.154963
1023,379752021,0.678563,-0.318565,-0.598343,-0.282939,-0.494709,0.052150,-0.015429
1024,379768688,0.679036,-0.318406,-0.597685,-0.283374,0.055546,0.389921,-0.096976
1025,379785355,0.679134,-0.319080,-0.596857,-0.284127,-0.069042,0.388278,-0.024197
1026,379802022,0.678923,-0.320119,-0.596128,-0.284989,-0.380091,0.191542,-0.105657
1027,379818689,0.678317,-0.321244,-0.595823,-0.285805,-0.687870,-0.397797,-0.212236
1028,379835356,0.677770,-0.321413,-0.596123,-0.286286,-0.112634,0.409554,-0.001470
1029,379852023,0.676471,-0.323062,-0.595883,-0.287995,-0.323156,-0.094140,-0.067637
1030,379868690,0.675068,-0.324584,-0.596021,-0.289288,-0.404987,-0.145508,-0.053205
1031,379885357,0.673719,-0.325694,-0.596445,-0.290311,-0.167935,-0.043147,0.104197
1032,379902024,0.672922,-0.326140,-0.597333,-0.289832,0.745653,0.646213,0.144644
1033,379918691,0.670743,-0.331260,-0.595456,-0.292922,-1.152096,0.667581,-0.435662
1034,379935358,0.669105,-0.331305,-0.596943,-0.293590,-2.043108,-0.026758,-0.495634
1035,379952025,0.666971,-0.331152,-0.600574,-0.291202,1.010030,1.317422,0.316784
1036,379968692,0.665464,-0.332365,-0.600994,-0.292400,0.163963,-2.675586,0.398597
1037,379985359,0.665739,-0.329813,-0.602985,-0.290559,1.902621,-0.437959,0.444584
1038,380002026,0.666125,-0.331310,-0.601492,-0.291065,1.595186,0.266682,0.341714
1039,380018693,0.667234,-0.332306,-0.599173,-0.292170,-0.035910,-1.509408,0.293217
1040,380035360,0.669115,-0.331291,-0.597392,-0.292668,-0.093845,0.232751,0.159406
1041,380052027,0.670004,-0.331759,-0.595264,-0.294436,-1.695993,1.321764,-0.601168
1042,380068694,0.669755,-0.331232,-0.595751,-0.294610,-1.714506,1.504998,-0.738368
1043,380085361,0.668472,-0.331428,-0.597542,-0.293674,-0.454640,0.375500,-0.191978
1044,380102028,0.667099,-0.331994,-0.599069,-0.293046,0.626066,-1.070136,0.517653
1045,380118695,0.666894,-0.331586,-0.599401,-0.293296,0.787106,-0.950595,0.275999
1046,380135362,0.667850,-0.330714,-0.599405,-0.292092,1.246006,0.244085,0.155540
1047,380152029,0.668388,-0.332212,-0.597379,-0.293312,0.190869,-0.810828,0.335229
1048,380168696,0.669051,-0.331974,-0.596103,-0.294662,-1.424961,-0.145405,-0.335407
1049,380185363,0.669124,-0.331083,-0.596723,-0.294244,-0.560972,2.434720,-0.459853
1050,380202030,0.667846,-0.332749,-0.596792,-0.295127,-1.028456,-0.241147,-0.269230
1051,380218697,0.667098,-0.331781,-0.598762,-0.293915,0.088778,-0.796358,0.270061
1052,380235364,0.666426,-0.331830,-0.599366,-0.294154,0.619767,0.091677,0.151773
1053,380252031,0.666301,-0.331842,-0.599648,-0.293848,0.571550,-0.299601,0.155721
1054,380268698,0.666748,-0.331831,-0.599391,-0.293371,0.414959,-0.791187,0.224022
1055,380285365,0.667321,-0.331806,-0.598562,-0.293787,0.562250,0.058305,0.199226
1056,380302032,0.668019,-0.332382,-0.597174,-0.294376,-0.153154,-0.078516,0.106279
1057,380318699,0.668883,-0.331838,-0.596098,-0.295205,-1.126040,0.007900,-0.307408
1058,380335366,0.668867,-0.331306,-0.596495,-0.295037,-0.447262,1.634322,-0.354859
1059,380352033,0.667723,-0.332700,-0.596567,-0.295913,-0.795763,-0.180908,-0.160393
1060,380368700,0.667341,-0.331695,-0.598114,-0.294779,0.215563,-0.480991,0.183619
1061,380385367,0.667325,-0.331732,-0.598334,-0.294327,0.995396,-0.055513,0.303573
1062,380402034,0.667583,-0.332216,-0.597697,-0.294489,-0.008491,-0.783564,0.170183
1063,380418701,0.668121,-0.331759,-0.597192,-0.294808,-0.197161,0.246767,-0.076679
1064,380435368,0.668088,-0.332110,-0.596941,-0.294998,-0.512863,0.764001,-0.214792
1065,380452035,0.667521,-0.332317,-0.597010,-0.295906,-0.601308,-0.045150,-0.134425
1066,380468702,0.667196,-0.331851,-0.598022,-0.295117,0.130577,0.019257,0.041557
1067,380485369,0.666857,-0.332266,-0.598096,-0.295268,0.374833,-0.306806,0.211953
1068,380502036,0.667206,-0.332033,-0.598047,-0.294840,0.230321,-0.472275,0.156803
1069,380518703,0.667678,-0.331808,-0.597654,-0.294822,0.127859,0.168229,0.048975
1070,380535370,0.667847,-0.332178,-0.596991,-0.295366,-0.383347,0.058023,-0.093394
1071,380552037,0.667851,-0.331966,-0.597075,-0.295425,-0.429616,0.227466,-0.141353
1072,380568704,0.667588,-0.332010,-0.597196,-0.295724,-0.017759,0.246153,-0.027094
1073,380585371,0.667407,-0.332108,-0.597235,-0.295943,0.018539,-0.354876,0.109803
1074,380602038,0.667625,-0.331807,-0.597296,-0.295666,0.147081,-0.111495,0.074706
1075,380618705,0.667837,-0.331955,-0.597145,-0.295327,-0.117473,0.168232,-0.005108
1076,380635372,0.667800,-0.332051,-0.597043,-0.295509,-0.365456,0.135375,-0.093973
1077,380652039,0.667445,-0.332094,-0.597161,-0.296025,-0.135515,0.198090,-0.047750
1078,380668706,0.667002,-0.332331,-0.597268,-0.296539,-0.045315,-0.162553,0.070896
1079,380685373,0.666965,-0.332064,-0.597659,-0.296132,0.013783,-0.203092,0.058610
1080,380702040,0.667010,-0.332110,-0.597589,-0.296121,0.145097,0.037819,0.073538
1081,380718707,0.667118,-0.332197,-0.597496,-0.295970,-0.101752,-0.123884,0.035866
1082,380735374,0.667264,-0.332048,-0.597468,-0.295864,-0.092794,0.071825,-0.016456
1083,380752041,0.667273,-0.332181,-0.597409,-0.295811,-0.104799,0.123612,-0.004121
1084,380768708,0.667257,-0.332207,-0.597377,-0.295886,-0.118605,-0.105009,0.011520
1085,380785375,0.667310,-0.332078,-0.597437,-0.295788,0.040630,0.028908,0.050775
1086,380802042,0.667402,-0.332211,-0.597345,-0.295618,-0.066087,-0.069205,0.030910
1087,380818709,0.667507,-0.332118,-0.597275,-0.295627,-0.101932,-0.013957,0.003216
1088,380835376,0.667503,-0.332202,-0.597095,-0.295906,-0.048337,0.109345,0.000551
1089,380852043,0.667491,-0.332226,-0.597076,-0.295943,-0.203091,-0.036007,-0.002684
1090,380868710,0.667451,-0.332131,-0.597125,-0.296040,-0.093597,0.133218,-0.015199
1091,380885377,0.667269,-0.332291,-0.597131,-0.296259,-0.120458,0.033765,0.004874
1092,380902044,0.667097,-0.332276,-0.597190,-0.296545,-0.107824,-0.048556,0.009050
1093,380918711,0.666958,-0.332244,-0.597270,-0.296732,-0.007554,0.069236,0.029414
1094,380935378,0.666840,-0.332310,-0.597271,-0.296921,-0.063903,-0.080066,0.029575
1095,380952045,0.666807,-0.332192,-0.597335,-0.296999,-0.021195,-0.025758,0.029111
1096,380968712,0.666815,-0.332192,-0.597345,-0.296960,-0.019731,-0.015634,0.034417
1097,380985379,0.666908,-0.332163,-0.597299,-0.296876,-0.066450,-0.061679,0.025007
1098,381002046,0.667057,-0.332074,-0.597279,-0.296681,-0.023083,0.065112,0.013397
1099,381018713,0.667156,-0.332156,-0.597195,-0.296538,-0.115768,0.020859,0.008066
1100,381035380,0.667228,-0.332128,-0.597172,-0.296453,-0.117171,0.043430,0.005087
1101,381052047,0.667244,-0.332159,-0.597153,-0.296420,-0.086454,0.084123,0.013098
1102,381068714,0.667226,-0.332211,-0.597128,-0.296452,-0.107208,-0.043053,0.004042
1103,381085381,0.667198,-0.332197,-0.597132,-0.296522,-0.072057,0.017804,0.017826
1104,381102048,0.667147,-0.332239,-0.597137,-0.296579,-0.084382,0.012437,0.015237
1105,381118715,0.667107,-0.332228,-0.597138,-0.296680,-0.104305,-0.015706,0.003757
1106,381135382,0.667029,-0.332223,-0.597167,-0.296802,-0.076030,0.041203,-0.000566
1107,381152049,0.666914,-0.332289,-0.597165,-0.296990,-0.095731,-0.002596,-0.007322
1108,381168716,0.666807,-0.332275,-0.597208,-0.297162,-0.082529,0.007173,0.013862
1109,381185383,0.666724,-0.332288,-0.597242,-0.297264,-0.023292,-0.017422,0.023734
1110,381202050,0.666698,-0.332262,-0.597263,-0.297310,-0.046390,-0.047827,0.039877
1111,381218717,0.666743,-0.332206,-0.597270,-0.297258,-0.022220,-0.018386,0.024113
1112,381235384,0.666829,-0.332200,-0.597246,-0.297119,-0.077292,-0.006147,0.022925
1113,381252051,0.666951,-0.332167,-0.597198,-0.296977,-0.074898,-0.010586,0.003960
1114,381268718,0.667050,-0.332170,-0.597152,-0.296845,-0.072973,0.047737,-0.007187
1115,381285385,0.667090,-0.332201,-0.597122,-0.296782,-0.116358,0.031851,-0.010153
1116,381302052,0.667096,-0.332216,-0.597103,-0.296789,-0.091666,0.029821,-0.010315
1117,381318719,0.667070,-0.332266,-0.597078,-0.296843,-0.102933,0.025819,0.010004
1118,381335386,0.667011,-0.332279,-0.597089,-0.296936,-0.092316,-0.003204,-0.005616
1119,381352053,0.666929,-0.332274,-0.597117,-0.297071,-0.077767,0.041188,-0.003469
1120,381368720,0.666825,-0.332319,-0.597127,-0.297235,-0.083062,0.002123,0.003702
1121,381385387,0.666732,-0.332311,-0.597157,-0.297392,-0.067057,0.002057,0.022165
1122,381402054,0.666645,-0.332311,-0.597190,-0.297522,-0.039091,-0.027552,0.027298
1123,381418721,0.666593,-0.332297,-0.597210,-0.297612,-0.048386,-0.022956,0.022884
1124,381435388,0.666589,-0.332288,-0.597216,-0.297617,-0.039223,-0.005078,0.024817
1125,381452055,0.666626,-0.332271,-0.597212,-0.297564,-0.059281,-0.002989,0.007385
1126,381468722,0.666692,-0.332251,-0.597189,-0.297485,-0.063024,0.005292,0.015353
1127,381485389,0.666773,-0.332241,-0.597160,-0.297371,-0.079678,0.031368,0.011519
1128,381502056,0.666858,-0.332245,-0.597118,-0.297261,-0.072062,0.012159,0.010892
1129,381518723,0.666921,-0.332248,-0.597090,-0.297172,-0.086639,0.019195,0.013801
1130,381535390,0.666953,-0.332272,-0.597057,-0.297139,-0.106822,0.021599,0.000737
1131,381552057,0.666932,-0.332302,-0.597051,-0.297164,-0.104774,0.026111,0.008303
1132,381568724,0.666864,-0.332329,-0.597068,-0.297253,-0.081767,0.003754,0.011814
1133,381585391,0.666776,-0.332356,-0.597087,-0.297382,-0.079623,-0.009755,0.005654
1134,381602058,0.666697,-0.332347,-0.597112,-0.297521,-0.062536,-0.004325,0.004916
1135,381618725,0.666611,-0.332365,-0.597126,-0.297665,-0.044590,-0.025055,0.016016
1136,381635392,0.666543,-0.332350,-0.597156,-0.297774,-0.073792,-0.012279,0.014062
1137,381652059,0.666512,-0.332337,-0.597169,-0.297829,-0.061454,-0.006136,0.034494
1138,381668726,0.666510,-0.332327,-0.597176,-0.297832,-0.054032,-0.001812,0.023408
1139,381685393,0.666542,-0.332307,-0.597179,-0.297778,-0.042243,-0.000967,0.027754
1140,381702060,0.666605,-0.332293,-0.597167,-0.297677,-0.037299,-0.025031,0.019203
1141,381718727,0.666671,-0.332308,-0.597129,-0.297587,-0.057633,0.000728,0.011166
1142,381735394,0.666726,-0.332325,-0.597097,-0.297509,-0.087872,0.013367,0.008965
1143,381752061,0.666774,-0.332334,-0.597070,-0.297448,-0.087690,0.011149,0.003341
1144,381768728,0.666796,-0.332350,-0.597047,-0.297426,-0.088654,0.012356,0.013937
1145,381785395,0.666794,-0.332364,-0.597046,-0.297416,-0.089356,0.040254,0.000666
1146,381802062,0.666760,-0.332389,-0.597038,-0.297480,-0.112002,0.047458,-0.007402
1147,381818729,0.666688,-0.332411,-0.597051,-0.297592,-0.079990,0.020989,-0.003187
1148,381835396,0.666590,-0.332437,-0.597070,-0.297744,-0.094054,0.021165,0.010286
1149,381852063,0.666494,-0.332440,-0.597105,-0.297884,-0.080025,-0.003711,0.021364
1150,381868730,0.666421,-0.332437,-0.597136,-0.297991,-0.057151,-0.025177,0.042244
1151,381885397,0.666387,-0.332423,-0.597153,-0.298048,-0.056524,-0.024413,0.029960
1152,381902064,0.666396,-0.332399,-0.597156,-0.298048,-0.049999,-0.016441,0.026883
1153,381918731,0.666456,-0.332373,-0.597144,-0.297965,-0.046450,-0.003686,0.023708
1154,381935398,0.666533,-0.332361,-0.597118,-0.297858,-0.074034,0.010224,0.010536
1155,381952065,0.666611,-0.332377,-0.597075,-0.297754,-0.075315,0.006293,0.012676
1156,381968732,0.666671,-0.332380,-0.597051,-0.297664,-0.094691,0.018292,0.000689
1157,381985399,0.666700,-0.332408,-0.597017,-0.297635,-0.097091,0.025342,0.002545
1158,382002066,0.666708,-0.332419,-0.597004,-0.297633,-0.090696,0.016637,-0.003383
1159,382018733,0.666691,-0.332433,-0.597000,-0.297663,-0.097279,0.038145,0.001850
1160,382035400,0.666656,-0.332449,-0.597003,-0.297716,-0.095436,0.033239,0.009157
1161,382052067,0.666601,-0.332458,-0.597014,-0.297808,-0.086499,0.024782,-0.006229
1162,382068734,0.666523,-0.332482,-0.597030,-0.297924,-0.075829,0.007366,0.013367
1163,382085401,0.666445,-0.332476,-0.597061,-0.298042,-0.065378,-0.000520,0.015827
1164,382102068,0.666365,-0.332474,-0.597103,-0.298139,-0.068551,-0.006899,0.025414
1165,382118735,0.666328,-0.332461,-0.597123,-0.298196,-0.044291,-0.015859,0.012292
1166,382135402,0.666334,-0.332435,-0.597139,-0.298180,-0.046637,-0.016743,0.016505
1167,382152069,0.666375,-0.332412,-0.597140,-0.298114,-0.063412,0.005699,0.032710
1168,382168736,0.666438,-0.332397,-0.597125,-0.298019,-0.064932,-0.000060,0.018618
1169,382185403,0.666508,-0.332402,-0.597093,-0.297919,-0.065414,0.011087,0.009280
1170,382202070,0.666578,-0.332409,-0.597051,-0.297839,-0.096069,0.038747,0.018844
1171,382218737,0.666628,-0.332411,-0.597026,-0.297774,-0.085928,0.013241,0.004909
1172,382235404,0.666632,-0.332429,-0.597015,-0.297770,-0.091083,0.036348,0.002992
1173,382252071,0.666615,-0.332449,-0.597004,-0.297808,-0.098397,0.027021,-0.000822
1174,382268738,0.666559,-0.332489,-0.597000,-0.297896,-0.084310,0.019559,0.019886
1175,382285405,0.666497,-0.332507,-0.597013,-0.297989,-0.067262,0.011827,0.005207
1176,382302072,0.666427,-0.332518,-0.597028,-0.298101,-0.072739,0.006488,0.004072
1177,382318739,0.666357,-0.332526,-0.597041,-0.298222,-0.067803,-0.009719,0.013535
1178,382335406,0.666299,-0.332512,-0.597066,-0.298319,-0.051183,-0.003809,0.013350
1179,382352073,0.666276,-0.332496,-0.597079,-0.298360,-0.016298,-0.033597,0.011532
1180,382368740,0.666286,-0.332480,-0.597082,-0.298350,-0.049648,-0.015069,0.031194
1181,382385407,0.666348,-0.332470,-0.597053,-0.298282,-0.048408,0.004478,0.019596
1182,382402074,0.666419,-0.332452,-0.597030,-0.298188,-0.060333,0.013990,0.012345
1183,382418741,0.666487,-0.332462,-0.596996,-0.298095,-0.078645,0.014310,-0.009879
1184,382435408,0.666528,-0.332471,-0.596966,-0.298053,-0.078456,0.019407,0.055705
1185,382452075,0.666549,-0.332500,-0.596946,-0.298015,-0.088699,0.021888,-0.036384
1186,382468742,0.666547,-0.332519,-0.596932,-0.298024,-0.092375,-0.007672,0.003881